onset	duration	run_number	trial_number	att_task	fix_direction	bar_direction	bar_period	bar_step	fix_noise_ori	stim_noise_ori	fix_stair_val	stim_stair_val	response_val	probe_time	reaction_time
1560350500	1.291533947	8	1	2	3	9	1	1	3	3	4	6	n/a	n/a	n/a
1560350501	1.291797161	8	2	2	3	9	1	2	3	3	4	6	n/a	n/a	n/a
1560350502	1.291659117	8	3	2	3	9	1	3	3	3	4	6	n/a	n/a	n/a
1560350503	1.291782141	8	4	2	3	9	1	4	3	3	4	6	n/a	n/a	n/a
1560350505	1.291754961	8	5	2	3	9	1	5	3	3	4	6	n/a	n/a	n/a
1560350506	1.291720152	8	6	2	3	9	1	6	3	3	4	6	n/a	n/a	n/a
1560350507	1.291671038	8	7	2	3	9	1	7	3	3	4	6	n/a	n/a	n/a
1560350509	1.291667938	8	8	2	3	9	1	8	3	3	4	6	n/a	n/a	n/a
1560350510	1.291689157	8	9	2	3	9	1	9	3	3	4	6	n/a	n/a	n/a
1560350511	1.291662931	8	10	2	3	9	1	10	3	3	4	6	n/a	n/a	n/a
1560350513	1.298975945	8	11	2	3	1	2	1	1	2	4	6	1	1560350513	0.4419817924
1560350514	1.291656017	8	12	2	3	1	2	2	1	2	4	7	0	1560350514	0.5167939663
1560350515	1.291698933	8	13	2	3	1	2	3	1	2	4	8	0	1560350516	0.5918600559
1560350516	1.291751862	8	14	2	3	1	2	4	1	2	4	8	1	1560350517	0.6417679787
1560350518	1.300004959	8	15	2	3	1	2	5	1	2	4	8	1	1560350518	0.6914558411
1560350519	1.291664839	8	16	2	3	1	2	6	1	2	4	7	1	1560350519	0.8417739868
1560350520	1.299985886	8	17	2	3	1	2	7	1	1	4	7	1	1560350521	0.8419849873
1560350522	1.299952984	8	18	2	3	1	2	8	1	1	4	7	1	1560350522	0.7419700623
1560350523	1.299981833	8	19	2	3	1	2	9	1	2	4	6	1	1560350523	0.8510870934
1560350524	1.299986124	8	20	2	3	1	2	10	1	2	4	6	1	1560350525	0.7505190372
1560350526	1.300005198	8	21	2	3	1	2	11	1	1	4	6	1	1560350526	0.8261170387
1560350527	1.299994946	8	22	2	3	1	2	12	1	2	4	5	1	1560350527	0.7667179108
1560350528	1.300082207	8	23	2	3	1	2	13	2	1	4	5	1	1560350529	0.6001739502
1560350530	1.291679859	8	24	2	3	1	2	14	2	1	4	6	0	1560350530	0.7003149986
1560350531	1.291655064	8	25	2	3	1	2	15	2	1	4	6	1	1560350531	0.6668851376
1560350532	1.300008059	8	26	2	3	1	2	16	2	2	4	6	1	1560350532	0.7502269745
1560350533	1.29173398	8	27	2	3	1	2	17	2	2	4	5	1	1560350534	0.7417800426
1560350535	1.291748047	8	28	2	3	1	2	18	1	2	4	5	1	1560350535	0.7751340866
1560350536	1.291412115	8	29	2	3	9	3	1	3	3	4	5	n/a	n/a	n/a
1560350537	1.291641951	8	30	2	3	9	3	2	3	3	4	5	n/a	n/a	n/a
1560350539	1.291670084	8	31	2	3	9	3	3	3	3	4	5	n/a	n/a	n/a
1560350540	1.291692019	8	32	2	3	9	3	4	3	3	4	5	n/a	n/a	n/a
1560350541	1.291739941	8	33	2	3	9	3	5	3	3	4	5	n/a	n/a	n/a
1560350543	1.291654825	8	34	2	3	9	3	6	3	3	4	5	n/a	n/a	n/a
1560350544	1.291666031	8	35	2	3	9	3	7	3	3	4	5	n/a	n/a	n/a
1560350545	1.291664124	8	36	2	3	9	3	8	3	3	4	5	n/a	n/a	n/a
1560350546	1.291658163	8	37	2	3	9	3	9	3	3	4	5	n/a	n/a	n/a
1560350548	1.29166317	8	38	2	3	9	3	10	3	3	4	5	n/a	n/a	n/a
1560350549	1.299649954	8	39	2	3	5	4	1	2	1	4	6	0	1560350549	0.3917980194
1560350550	1.291666985	8	40	2	3	5	4	2	1	1	4	6	1	1560350551	0.5667819977
1560350552	1.29166317	8	41	2	3	5	4	3	2	1	4	6	n/a	1560350552	n/a
1560350553	1.291609049	8	42	2	3	5	4	4	1	2	4	6	n/a	1560350553	n/a
1560350554	1.300017118	8	43	2	3	5	4	5	2	1	4	6	n/a	1560350555	n/a
1560350556	1.291656017	8	44	2	3	5	4	6	2	1	4	7	0	1560350556	0.1167299747
1560350557	1.300001144	8	45	2	3	5	4	7	2	2	4	7	1	1560350557	0.5500719547
1560350558	1.291659117	8	46	2	3	5	4	8	1	2	4	7	1	1560350559	0.6834177971
1560350559	1.300045013	8	47	2	3	5	4	9	1	2	4	6	1	1560350560	0.8584609032
1560350561	1.291655064	8	48	2	3	5	4	10	2	1	4	6	1	1560350561	0.8917121887
1560350562	1.291651011	8	49	2	3	5	4	11	1	1	4	6	1	1560350562	0.8751411438
1560350563	1.291656017	8	50	2	3	5	4	12	1	1	4	6	n/a	1560350564	n/a
1560350565	1.291661024	8	51	2	3	5	4	13	2	2	4	6	n/a	1560350565	n/a
1560350566	1.300003052	8	52	2	3	5	4	14	2	2	4	5	1	1560350566	0.833468914
1560350567	1.291726112	8	53	2	3	5	4	15	2	2	4	5	1	1560350568	0.8667490482
1560350569	1.291679859	8	54	2	3	5	4	16	1	2	4	6	0	1560350569	0.8419311047
1560350570	1.291666031	8	55	2	3	5	4	17	1	2	4	6	1	1560350570	0.7167921066
1560350571	1.291599035	8	56	2	3	5	4	18	1	1	4	6	1	1560350572	0.5084409714
1560350573	1.291671038	8	57	2	3	9	5	1	3	3	4	6	n/a	n/a	n/a
1560350574	1.291679144	8	58	2	3	9	5	2	3	3	4	6	n/a	n/a	n/a
1560350575	1.29166007	8	59	2	3	9	5	3	3	3	4	6	n/a	n/a	n/a
1560350576	1.291668892	8	60	2	3	9	5	4	3	3	4	6	n/a	n/a	n/a
1560350578	1.291667938	8	61	2	3	9	5	5	3	3	4	6	n/a	n/a	n/a
1560350579	1.291612148	8	62	2	3	9	5	6	3	3	4	6	n/a	n/a	n/a
1560350580	1.291736841	8	63	2	3	9	5	7	3	3	4	6	n/a	n/a	n/a
1560350582	1.291658878	8	64	2	3	9	5	8	3	3	4	6	n/a	n/a	n/a
1560350583	1.291669846	8	65	2	3	9	5	9	3	3	4	6	n/a	n/a	n/a
1560350584	1.291652203	8	66	2	3	9	5	10	3	3	4	6	n/a	n/a	n/a
1560350586	1.291672945	8	67	2	3	1	6	1	1	2	4	5	1	1560350586	0.3170719147
1560350587	1.291725874	8	68	2	3	1	6	2	1	1	4	5	1	1560350587	0.3750448227
1560350588	1.291659832	8	69	2	3	1	6	3	2	2	4	6	0	1560350588	0.4500758648
1560350589	1.29166007	8	70	2	3	1	6	4	2	1	4	7	0	1560350590	0.5000710487
1560350591	1.299993992	8	71	2	3	1	6	5	2	2	4	7	1	1560350591	0.6418049335
1560350592	1.299947023	8	72	2	3	1	6	6	1	2	4	7	1	1560350592	0.5834841728
1560350593	1.299994946	8	73	2	3	1	6	7	1	2	4	6	1	1560350594	0.5917060375
1560350595	1.29166007	8	74	2	3	1	6	8	1	1	4	6	1	1560350595	0.5667159557
1560350596	1.300001144	8	75	2	3	1	6	9	1	1	4	7	0	1560350596	0.5835559368
1560350597	1.300013065	8	76	2	3	1	6	10	2	1	4	7	1	1560350598	0.5501110554
1560350599	1.300079107	8	77	2	3	1	6	11	2	1	4	7	1	1560350599	0.5501110554
1560350600	1.291661024	8	78	2	3	1	6	12	2	2	4	6	1	1560350600	0.6918029785
1560350601	1.291656971	8	79	2	3	1	6	13	1	2	4	6	1	1560350602	0.6251959801
1560350602	1.299934864	8	80	2	3	1	6	14	2	2	4	6	1	1560350603	0.666836977
1560350604	1.291692972	8	81	2	3	1	6	15	1	2	4	5	1	1560350604	0.6834800243
1560350605	1.30009079	8	82	2	3	1	6	16	1	1	4	6	0	1560350605	0.758491993
1560350606	1.291663885	8	83	2	3	1	6	17	2	2	4	7	0	1560350607	0.6669149399
1560350608	1.299996138	8	84	2	3	1	6	18	1	1	4	8	0	1560350608	0.6417839527
1560350609	1.291671991	8	85	2	3	9	7	1	3	3	4	8	n/a	n/a	n/a
1560350610	1.291670799	8	86	2	3	9	7	2	3	3	4	8	n/a	n/a	n/a
1560350612	1.291662931	8	87	2	3	9	7	3	3	3	4	8	n/a	n/a	n/a
1560350613	1.291671991	8	88	2	3	9	7	4	3	3	4	8	n/a	n/a	n/a
1560350614	1.291665077	8	89	2	3	9	7	5	3	3	4	8	n/a	n/a	n/a
1560350616	1.291702032	8	90	2	3	9	7	6	3	3	4	8	n/a	n/a	n/a
1560350617	1.291643143	8	91	2	3	9	7	7	3	3	4	8	n/a	n/a	n/a
1560350618	1.291751146	8	92	2	3	9	7	8	3	3	4	8	n/a	n/a	n/a
1560350619	1.291765928	8	93	2	3	9	7	9	3	3	4	8	n/a	n/a	n/a
1560350621	1.291665792	8	94	2	3	9	7	10	3	3	4	8	n/a	n/a	n/a
1560350622	1.291735172	8	95	2	3	5	8	1	2	1	4	9	0	1560350622	0.3752942085
1560350623	1.299958944	8	96	2	3	5	8	2	1	2	4	9	1	1560350624	0.5418348312
1560350625	1.291741848	8	97	2	3	5	8	3	1	2	4	10	0	1560350625	0.6001579762
1560350626	1.299996853	8	98	2	3	5	8	4	1	2	4	10	1	1560350626	0.5251810551
1560350627	1.291659117	8	99	2	3	5	8	5	2	1	4	10	1	1560350628	0.6666910648
1560350629	1.300089121	8	100	2	3	5	8	6	2	2	4	9	1	1560350629	0.6001348495
1560350630	1.299998045	8	101	2	3	5	8	7	1	1	4	9	1	1560350630	0.6501269341
1560350631	1.300002098	8	102	2	3	5	8	8	1	1	4	9	1	1560350631	0.5750329494
1560350632	1.300002098	8	103	2	3	5	8	9	2	2	4	8	1	1560350633	0.5667362213
1560350634	1.300009012	8	104	2	3	5	8	10	1	2	4	8	1	1560350634	0.6251358986
1560350635	1.299973011	8	105	2	3	5	8	11	2	1	4	8	1	1560350635	0.5251278877
1560350636	1.30009222	8	106	2	3	5	8	12	2	1	4	7	1	1560350637	0.625287056
1560350638	1.291667938	8	107	2	3	5	8	13	2	1	4	7	1	1560350638	0.5417821407
1560350639	1.291754961	8	108	2	3	5	8	14	2	2	4	8	0	1560350639	0.4834489822
1560350640	1.291754961	8	109	2	3	5	8	15	1	2	4	8	1	1560350641	0.5750999451
1560350642	1.291542053	8	110	2	3	5	8	16	1	1	4	8	1	1560350642	0.491738081
1560350643	1.291746855	8	111	2	3	5	8	17	2	2	4	7	1	1560350643	0.550041914
1560350644	1.299998045	8	112	2	3	5	8	18	2	1	4	8	0	1560350645	0.6250970364
1560350646	1.291682005	8	113	2	3	9	9	1	3	3	4	8	n/a	n/a	n/a
1560350647	1.291649103	8	114	2	3	9	9	2	3	3	4	8	n/a	n/a	n/a
1560350648	1.291688204	8	115	2	3	9	9	3	3	3	4	8	n/a	n/a	n/a
1560350649	1.291697025	8	116	2	3	9	9	4	3	3	4	8	n/a	n/a	n/a
1560350651	1.291712046	8	117	2	3	9	9	5	3	3	4	8	n/a	n/a	n/a
1560350652	1.291650057	8	118	2	3	9	9	6	3	3	4	8	n/a	n/a	n/a
1560350653	1.291667938	8	119	2	3	9	9	7	3	3	4	8	n/a	n/a	n/a
1560350655	1.291648865	8	120	2	3	9	9	8	3	3	4	8	n/a	n/a	n/a
1560350656	1.291736841	8	121	2	3	9	9	9	3	3	4	8	n/a	n/a	n/a
1560350657	1.291650057	8	122	2	3	9	9	10	3	3	4	8	n/a	n/a	n/a
