onset	duration	run_number	trial_number	att_task	fix_direction	bar_direction	bar_period	bar_step	fix_noise_ori	stim_noise_ori	fix_stair_val	stim_stair_val	response_val	probe_time	reaction_time
1560349206	1.291470051	3	1	1	4	9	1	1	3	3	7	13	n/a	n/a	n/a
1560349207	1.291809082	3	2	1	4	9	1	2	3	3	7	13	n/a	n/a	n/a
1560349208	1.291778088	3	3	1	4	9	1	3	3	3	7	13	n/a	n/a	n/a
1560349210	1.291673183	3	4	1	4	9	1	4	3	3	7	13	n/a	n/a	n/a
1560349211	1.291613102	3	5	1	4	9	1	5	3	3	7	13	n/a	n/a	n/a
1560349212	1.291723013	3	6	1	4	9	1	6	3	3	7	13	n/a	n/a	n/a
1560349214	1.291695833	3	7	1	4	9	1	7	3	3	7	13	n/a	n/a	n/a
1560349215	1.291668177	3	8	1	4	9	1	8	3	3	7	13	n/a	n/a	n/a
1560349216	1.291651964	3	9	1	4	9	1	9	3	3	7	13	n/a	n/a	n/a
1560349217	1.291661978	3	10	1	4	9	1	10	3	3	7	13	n/a	n/a	n/a
1560349219	1.307250977	3	11	1	4	1	2	1	2	1	7	13	1	1560349219	0.5170359612
1560349220	1.308328867	3	12	1	4	1	2	2	1	2	6	13	1	1560349220	0.5668489933
1560349221	1.300008059	3	13	1	4	1	2	3	1	1	6	13	1	1560349222	0.783413887
1560349223	1.299992085	3	14	1	4	1	2	4	1	1	6	13	1	1560349223	0.7001709938
1560349224	1.299992085	3	15	1	4	1	2	5	2	2	5	13	1	1560349224	0.7664849758
1560349225	1.299993038	3	16	1	4	1	2	6	2	2	5	13	1	1560349226	0.7001318932
1560349227	1.299940109	3	17	1	4	1	2	7	1	1	5	13	1	1560349227	0.6919140816
1560349228	1.300055027	3	18	1	4	1	2	8	2	2	6	13	0	1560349228	0.8010928631
1560349229	1.300000906	3	19	1	4	1	2	9	2	2	6	13	1	1560349230	0.6169819832
1560349231	1.299998999	3	20	1	4	1	2	10	1	1	6	13	1	1560349231	0.4835839272
1560349232	1.299993992	3	21	1	4	1	2	11	1	1	5	13	1	1560349232	0.6088130474
1560349233	1.299988031	3	22	1	4	1	2	12	1	2	6	13	0	1560349234	0.7843461037
1560349235	1.299996853	3	23	1	4	1	2	13	2	2	6	13	1	1560349235	0.8420009613
1560349236	1.299958944	3	24	1	4	1	2	14	1	1	6	13	1	1560349236	0.6917209625
1560349237	1.299991131	3	25	1	4	1	2	15	1	1	5	13	1	1560349237	0.6668629646
1560349238	1.299974918	3	26	1	4	1	2	16	1	1	5	13	1	1560349239	0.8001229763
1560349240	1.299988985	3	27	1	4	1	2	17	1	1	6	13	0	1560349240	0.7917430401
1560349241	1.299993992	3	28	1	4	1	2	18	2	1	7	13	0	1560349241	0.7168412209
1560349242	1.291667938	3	29	1	4	1	2	19	2	1	7	13	1	1560349243	0.733538866
1560349244	1.300009966	3	30	1	4	1	2	20	2	1	7	13	1	1560349244	0.725039959
1560349245	1.299998045	3	31	1	4	1	2	21	1	2	6	13	1	1560349245	0.6585211754
1560349246	1.300013065	3	32	1	4	1	2	22	2	1	6	13	1	1560349247	0.700206995
1560349248	1.300007105	3	33	1	4	1	2	23	2	2	7	13	0	1560349248	0.5502510071
1560349249	1.291672945	3	34	1	4	1	2	24	2	2	7	13	1	1560349249	0.5501868725
1560349250	1.300009012	3	35	1	4	1	2	25	1	1	7	13	1	1560349251	0.6084690094
1560349252	1.300001144	3	36	1	4	1	2	26	1	2	6	13	1	1560349252	0.7584609985
1560349253	1.2999928	3	37	1	4	1	2	27	1	1	6	13	1	1560349253	0.750123024
1560349254	1.299991131	3	38	1	4	1	2	28	2	2	6	13	1	1560349254	0.8834738731
1560349255	1.299991846	3	39	1	4	1	2	29	1	2	5	13	1	1560349256	0.6083409786
1560349257	1.300081015	3	40	1	4	1	2	30	2	2	5	13	1	1560349257	0.7834708691
1560349258	1.300000191	3	41	1	4	1	2	31	1	1	5	13	1	1560349258	0.6835150719
1560349259	1.300006866	3	42	1	4	1	2	32	2	2	4	13	1	1560349260	0.6501688957
1560349261	1.291285992	3	43	1	4	9	3	1	3	3	4	13	n/a	n/a	n/a
1560349262	1.291592121	3	44	1	4	9	3	2	3	3	4	13	n/a	n/a	n/a
1560349263	1.291661978	3	45	1	4	9	3	3	3	3	4	13	n/a	n/a	n/a
1560349265	1.291661024	3	46	1	4	9	3	4	3	3	4	13	n/a	n/a	n/a
1560349266	1.291661978	3	47	1	4	9	3	5	3	3	4	13	n/a	n/a	n/a
1560349267	1.291674137	3	48	1	4	9	3	6	3	3	4	13	n/a	n/a	n/a
1560349268	1.291621923	3	49	1	4	9	3	7	3	3	4	13	n/a	n/a	n/a
1560349270	1.291714907	3	50	1	4	9	3	8	3	3	4	13	n/a	n/a	n/a
1560349271	1.291673899	3	51	1	4	9	3	9	3	3	4	13	n/a	n/a	n/a
1560349272	1.291669846	3	52	1	4	9	3	10	3	3	4	13	n/a	n/a	n/a
1560349274	1.308488131	3	53	1	4	3	4	1	1	2	4	13	n/a	1560349274	n/a
1560349275	1.29993391	3	54	1	4	3	4	2	1	1	5	13	0	1560349275	0.2003262043
1560349276	1.300009012	3	55	1	4	3	4	3	1	2	6	13	0	1560349277	0.5502121449
1560349278	1.30000186	3	56	1	4	3	4	4	1	2	7	13	0	1560349278	0.475217104
1560349279	1.300005913	3	57	1	4	3	4	5	2	2	7	13	1	1560349279	0.5084769726
1560349280	1.324992895	3	58	1	4	3	4	6	2	2	8	13	0	1560349281	0.350331068
1560349282	1.316669941	3	59	1	4	3	4	7	1	1	9	13	0	1560349282	0.4335298538
1560349283	1.308336973	3	60	1	4	3	4	8	2	2	9	13	1	1560349283	0.4834091663
1560349284	1.300002813	3	61	1	4	3	4	9	1	1	9	13	1	1560349285	0.4916949272
1560349286	1.299991131	3	62	1	4	3	4	10	2	2	8	13	1	1560349286	0.4501299858
1560349287	1.299993038	3	63	1	4	3	4	11	2	2	8	13	1	1560349287	0.550027132
1560349288	1.299962997	3	64	1	4	3	4	12	2	1	8	13	1	1560349288	0.6917030811
1560349289	1.300003052	3	65	1	4	3	4	13	2	1	7	13	1	1560349290	0.5751388073
1560349291	1.299967051	3	66	1	4	3	4	14	1	2	8	13	0	1560349291	0.6750290394
1560349292	1.299953938	3	67	1	4	3	4	15	1	1	9	13	0	1560349292	0.5251319408
1560349293	1.30000782	3	68	1	4	3	4	16	1	1	9	13	1	1560349294	0.5668289661
1560349295	1.324995041	3	69	1	4	3	4	17	1	2	9	13	1	1560349295	0.6001238823
1560349296	1.299986124	3	70	1	4	3	4	18	1	1	8	13	1	1560349296	0.5667700768
1560349297	1.291687012	3	71	1	4	9	5	1	3	3	8	13	n/a	n/a	n/a
1560349299	1.291640043	3	72	1	4	9	5	2	3	3	8	13	n/a	n/a	n/a
1560349300	1.291671991	3	73	1	4	9	5	3	3	3	8	13	n/a	n/a	n/a
1560349301	1.29161787	3	74	1	4	9	5	4	3	3	8	13	n/a	n/a	n/a
1560349303	1.291661024	3	75	1	4	9	5	5	3	3	8	13	n/a	n/a	n/a
1560349304	1.291672945	3	76	1	4	9	5	6	3	3	8	13	n/a	n/a	n/a
1560349305	1.291606903	3	77	1	4	9	5	7	3	3	8	13	n/a	n/a	n/a
1560349306	1.291646957	3	78	1	4	9	5	8	3	3	8	13	n/a	n/a	n/a
1560349308	1.291664124	3	79	1	4	9	5	9	3	3	8	13	n/a	n/a	n/a
1560349309	1.29164505	3	80	1	4	9	5	10	3	3	8	13	n/a	n/a	n/a
1560349310	1.291733027	3	81	1	4	5	6	1	2	1	8	13	1	1560349311	0.6670091152
1560349312	1.300012112	3	82	1	4	5	6	2	2	1	9	13	0	1560349312	0.4419457912
1560349313	1.300000906	3	83	1	4	5	6	3	2	2	10	13	0	1560349313	0.6085128784
1560349314	1.299997091	3	84	1	4	5	6	4	2	1	10	13	1	1560349315	0.6334459782
1560349316	1.300069809	3	85	1	4	5	6	5	1	1	10	13	1	1560349316	0.5750520229
1560349317	1.299990177	3	86	1	4	5	6	6	1	2	11	13	0	1560349317	0.6167640686
1560349318	1.300056219	3	87	1	4	5	6	7	2	2	11	13	1	1560349319	0.5251750946
1560349319	1.299999952	3	88	1	4	5	6	8	1	1	11	13	1	1560349320	0.5084168911
1560349321	1.300024986	3	89	1	4	5	6	9	2	2	10	13	1	1560349321	0.5417249203
1560349322	1.300086021	3	90	1	4	5	6	10	2	1	10	13	1	1560349322	0.5834629536
1560349323	1.299990177	3	91	1	4	5	6	11	2	2	10	13	1	1560349324	0.6584260464
1560349325	1.299998999	3	92	1	4	5	6	12	1	1	11	13	0	1560349325	0.658454895
1560349326	1.299969912	3	93	1	4	5	6	13	2	1	11	13	1	1560349326	0.5917282104
1560349327	1.300086021	3	94	1	4	5	6	14	2	1	11	13	1	1560349328	0.6001331806
1560349329	1.300000906	3	95	1	4	5	6	15	2	1	10	13	1	1560349329	0.5501470566
1560349330	1.300081015	3	96	1	4	5	6	16	1	1	10	13	1	1560349330	0.5834598541
1560349331	1.300000906	3	97	1	4	5	6	17	1	1	10	13	1	1560349332	0.6334710121
1560349333	1.299999952	3	98	1	4	5	6	18	1	2	9	13	1	1560349333	0.6084859371
1560349334	1.299972057	3	99	1	4	5	6	19	2	2	9	13	1	1560349334	0.6001360416
1560349335	1.300084114	3	100	1	4	5	6	20	1	2	9	13	1	1560349336	0.5667190552
1560349337	1.300000906	3	101	1	4	5	6	21	2	2	8	13	1	1560349337	0.5668561459
1560349338	1.299947977	3	102	1	4	5	6	22	1	2	8	13	1	1560349338	0.5167069435
1560349339	1.300003052	3	103	1	4	5	6	23	1	1	8	13	1	1560349339	0.725194931
1560349340	1.299995184	3	104	1	4	5	6	24	1	2	7	13	1	1560349341	0.6916949749
1560349342	1.300008059	3	105	1	4	5	6	25	2	2	8	13	0	1560349342	0.5667979717
1560349343	1.299947023	3	106	1	4	5	6	26	1	1	8	13	1	1560349343	0.5917961597
1560349344	1.300078869	3	107	1	4	5	6	27	2	2	8	13	1	1560349345	0.5334739685
1560349346	1.300002098	3	108	1	4	5	6	28	2	1	7	13	1	1560349346	0.6417131424
1560349347	1.299998999	3	109	1	4	5	6	29	1	1	7	13	1	1560349347	0.7750680447
1560349348	1.299994946	3	110	1	4	5	6	30	1	1	7	13	1	1560349349	0.7835149765
1560349350	1.299983025	3	111	1	4	5	6	31	1	1	6	13	1	1560349350	0.7834029198
1560349351	1.299969912	3	112	1	4	5	6	32	1	2	7	13	0	1560349351	0.7417440414
1560349352	1.29172802	3	113	1	4	9	7	1	3	3	7	13	n/a	n/a	n/a
1560349354	1.291665792	3	114	1	4	9	7	2	3	3	7	13	n/a	n/a	n/a
1560349355	1.291668177	3	115	1	4	9	7	3	3	3	7	13	n/a	n/a	n/a
1560349356	1.291668892	3	116	1	4	9	7	4	3	3	7	13	n/a	n/a	n/a
1560349357	1.291656971	3	117	1	4	9	7	5	3	3	7	13	n/a	n/a	n/a
1560349359	1.29173398	3	118	1	4	9	7	6	3	3	7	13	n/a	n/a	n/a
1560349360	1.291666985	3	119	1	4	9	7	7	3	3	7	13	n/a	n/a	n/a
1560349361	1.291657925	3	120	1	4	9	7	8	3	3	7	13	n/a	n/a	n/a
1560349363	1.291620016	3	121	1	4	9	7	9	3	3	7	13	n/a	n/a	n/a
1560349364	1.291628838	3	122	1	4	9	7	10	3	3	7	13	n/a	n/a	n/a
1560349365	1.300060987	3	123	1	4	7	8	1	2	2	8	13	0	1560349366	0.3337929249
1560349367	1.300078869	3	124	1	4	7	8	2	2	1	8	13	1	1560349367	0.7750310898
1560349368	1.299971104	3	125	1	4	7	8	3	1	2	8	13	1	1560349368	0.7250330448
1560349369	1.300087929	3	126	1	4	7	8	4	2	1	7	13	1	1560349369	0.550150156
1560349370	1.299940109	3	127	1	4	7	8	5	2	1	7	13	1	1560349371	0.5834550858
1560349372	1.291662931	3	128	1	4	7	8	6	1	2	7	13	1	1560349372	0.6084010601
1560349373	1.299989939	3	129	1	4	7	8	7	1	2	7	13	1	1560349373	0.9251160622
1560349374	1.300001144	3	130	1	4	7	8	8	1	1	7	13	0	1560349375	0.7168049812
1560349376	1.299988031	3	131	1	4	7	8	9	2	1	7	13	1	1560349376	0.6918358803
1560349377	1.291657925	3	132	1	4	7	8	10	2	2	7	13	1	1560349377	0.7084441185
1560349378	1.291603804	3	133	1	4	7	8	11	1	2	6	13	1	1560349379	0.6251192093
1560349380	1.299985886	3	134	1	4	7	8	12	1	1	6	13	1	1560349380	0.6334769726
1560349381	1.300100088	3	135	1	4	7	8	13	1	1	6	13	1	1560349381	0.7667889595
1560349382	1.300004959	3	136	1	4	7	8	14	1	1	5	13	1	1560349383	0.7584528923
1560349384	1.299997091	3	137	1	4	7	8	15	2	1	5	13	1	1560349384	0.7000498772
1560349385	1.299988031	3	138	1	4	7	8	16	2	1	5	13	1	1560349385	0.6667599678
1560349386	1.299982071	3	139	1	4	7	8	17	2	1	4	13	1	1560349386	0.7084348202
1560349387	1.299977064	3	140	1	4	7	8	18	2	1	4	13	1	1560349388	0.6417121887
1560349389	1.291779041	3	141	1	4	9	9	1	3	3	4	13	n/a	n/a	n/a
1560349390	1.29166913	3	142	1	4	9	9	2	3	3	4	13	n/a	n/a	n/a
1560349391	1.291673899	3	143	1	4	9	9	3	3	3	4	13	n/a	n/a	n/a
1560349393	1.291638851	3	144	1	4	9	9	4	3	3	4	13	n/a	n/a	n/a
1560349394	1.291613102	3	145	1	4	9	9	5	3	3	4	13	n/a	n/a	n/a
1560349395	1.291668177	3	146	1	4	9	9	6	3	3	4	13	n/a	n/a	n/a
1560349397	1.291608095	3	147	1	4	9	9	7	3	3	4	13	n/a	n/a	n/a
1560349398	1.291659832	3	148	1	4	9	9	8	3	3	4	13	n/a	n/a	n/a
1560349399	1.291634083	3	149	1	4	9	9	9	3	3	4	13	n/a	n/a	n/a
1560349400	1.291723013	3	150	1	4	9	9	10	3	3	4	13	n/a	n/a	n/a
