onset	duration	run_number	trial_number	att_task	fix_direction	bar_direction	bar_period	bar_step	fix_noise_ori	stim_noise_ori	fix_stair_val	stim_stair_val	response_val	probe_time	reaction_time
1560349999	1.291274071	6	1	2	1	9	1	1	3	3	6	8	n/a	n/a	n/a
1560350000	1.291763067	6	2	2	1	9	1	2	3	3	6	8	n/a	n/a	n/a
1560350001	1.291662931	6	3	2	1	9	1	3	3	3	6	8	n/a	n/a	n/a
1560350003	1.29166317	6	4	2	1	9	1	4	3	3	6	8	n/a	n/a	n/a
1560350004	1.291603088	6	5	2	1	9	1	5	3	3	6	8	n/a	n/a	n/a
1560350005	1.291691065	6	6	2	1	9	1	6	3	3	6	8	n/a	n/a	n/a
1560350006	1.291656017	6	7	2	1	9	1	7	3	3	6	8	n/a	n/a	n/a
1560350008	1.291662931	6	8	2	1	9	1	8	3	3	6	8	n/a	n/a	n/a
1560350009	1.291664124	6	9	2	1	9	1	9	3	3	6	8	n/a	n/a	n/a
1560350010	1.291662931	6	10	2	1	9	1	10	3	3	6	8	n/a	n/a	n/a
1560350012	1.307273149	6	11	2	1	1	2	1	1	1	6	9	0	1560350012	0.6003119946
1560350013	1.300003052	6	12	2	1	1	2	2	2	2	6	10	0	1560350013	0.7335090637
1560350014	1.299999952	6	13	2	1	1	2	3	2	1	6	10	1	1560350015	0.6001729965
1560350016	1.299993038	6	14	2	1	1	2	4	2	1	6	10	1	1560350016	0.6668488979
1560350017	1.291757107	6	15	2	1	1	2	5	1	2	6	9	1	1560350017	0.6415390968
1560350018	1.299995899	6	16	2	1	1	2	6	2	1	6	9	1	1560350019	0.6584830284
1560350019	1.299998999	6	17	2	1	1	2	7	1	1	6	9	1	1560350020	0.6761040688
1560350021	1.300003052	6	18	2	1	1	2	8	2	2	6	8	1	1560350021	0.7002429962
1560350022	1.291667938	6	19	2	1	1	2	9	1	1	6	8	1	1560350022	0.6335618496
1560350023	1.29994297	6	20	2	1	1	2	10	2	2	6	8	1	1560350024	0.6086270809
1560350025	1.291646004	6	21	2	1	1	2	11	1	1	6	7	1	1560350025	0.6087651253
1560350026	1.30009222	6	22	2	1	1	2	12	1	2	6	7	1	1560350026	0.5843338966
1560350027	1.300003052	6	23	2	1	1	2	13	1	2	6	7	1	1560350028	0.7004039288
1560350029	1.299997807	6	24	2	1	1	2	14	2	2	6	6	1	1560350029	0.8335251808
1560350030	1.291661024	6	25	2	1	1	2	15	1	1	6	6	1	1560350030	0.7417759895
1560350031	1.291737795	6	26	2	1	1	2	16	1	2	6	6	1	1560350032	0.7584600449
1560350033	1.291668177	6	27	2	1	1	2	17	1	2	6	5	1	1560350033	0.6417219639
1560350034	1.299947977	6	28	2	1	1	2	18	2	2	6	6	0	1560350034	0.5836141109
1560350035	1.29164505	6	29	2	1	9	3	1	3	3	6	6	n/a	n/a	n/a
1560350036	1.291634083	6	30	2	1	9	3	2	3	3	6	6	n/a	n/a	n/a
1560350038	1.291669846	6	31	2	1	9	3	3	3	3	6	6	n/a	n/a	n/a
1560350039	1.291651011	6	32	2	1	9	3	4	3	3	6	6	n/a	n/a	n/a
1560350040	1.291668892	6	33	2	1	9	3	5	3	3	6	6	n/a	n/a	n/a
1560350042	1.291614056	6	34	2	1	9	3	6	3	3	6	6	n/a	n/a	n/a
1560350043	1.291641951	6	35	2	1	9	3	7	3	3	6	6	n/a	n/a	n/a
1560350044	1.291713953	6	36	2	1	9	3	8	3	3	6	6	n/a	n/a	n/a
1560350046	1.291667938	6	37	2	1	9	3	9	3	3	6	6	n/a	n/a	n/a
1560350047	1.291652918	6	38	2	1	9	3	10	3	3	6	6	n/a	n/a	n/a
1560350048	1.299732208	6	39	2	1	5	4	1	2	1	6	7	0	1560350048	0.2585937977
1560350049	1.291738987	6	40	2	1	5	4	2	1	2	6	7	1	1560350050	0.2167949677
1560350051	1.291659832	6	41	2	1	5	4	3	2	1	6	7	1	1560350051	0.5584299564
1560350052	1.299997091	6	42	2	1	5	4	4	1	2	6	6	1	1560350052	0.658495903
1560350053	1.291718006	6	43	2	1	5	4	5	2	1	6	6	1	1560350054	0.6250240803
1560350055	1.299997091	6	44	2	1	5	4	6	1	1	6	6	1	1560350055	0.658686161
1560350056	1.300000906	6	45	2	1	5	4	7	1	1	6	5	1	1560350056	0.6584570408
1560350057	1.299998999	6	46	2	1	5	4	8	1	2	6	5	1	1560350058	0.7417011261
1560350059	1.300004959	6	47	2	1	5	4	9	2	1	6	5	1	1560350059	0.6585018635
1560350060	1.291661978	6	48	2	1	5	4	10	2	2	6	4	1	1560350060	0.6502251625
1560350061	1.300085068	6	49	2	1	5	4	11	1	2	6	4	1	1560350062	0.7251300812
1560350063	1.291604996	6	50	2	1	5	4	12	2	1	6	4	1	1560350063	0.8667700291
1560350064	1.291671991	6	51	2	1	5	4	13	2	2	6	3	1	1560350064	0.8750929832
1560350065	1.29993701	6	52	2	1	5	4	14	1	1	6	3	1	1560350065	0.8251111507
1560350066	1.300050974	6	53	2	1	5	4	15	2	2	6	3	1	1560350067	0.6833751202
1560350068	1.30001092	6	54	2	1	5	4	16	1	1	6	4	0	1560350068	0.7585098743
1560350069	1.291684151	6	55	2	1	5	4	17	2	2	6	4	1	1560350069	0.7251391411
1560350070	1.291690111	6	56	2	1	5	4	18	2	2	6	5	0	1560350071	0.8084740639
1560350072	1.291716814	6	57	2	1	9	5	1	3	3	6	5	n/a	n/a	n/a
1560350073	1.291600943	6	58	2	1	9	5	2	3	3	6	5	n/a	n/a	n/a
1560350074	1.291656017	6	59	2	1	9	5	3	3	3	6	5	n/a	n/a	n/a
1560350076	1.291651011	6	60	2	1	9	5	4	3	3	6	5	n/a	n/a	n/a
1560350077	1.291691065	6	61	2	1	9	5	5	3	3	6	5	n/a	n/a	n/a
1560350078	1.291659117	6	62	2	1	9	5	6	3	3	6	5	n/a	n/a	n/a
1560350079	1.291661024	6	63	2	1	9	5	7	3	3	6	5	n/a	n/a	n/a
1560350081	1.291650057	6	64	2	1	9	5	8	3	3	6	5	n/a	n/a	n/a
1560350082	1.29166317	6	65	2	1	9	5	9	3	3	6	5	n/a	n/a	n/a
1560350083	1.291670799	6	66	2	1	9	5	10	3	3	6	5	n/a	n/a	n/a
1560350085	1.291785955	6	67	2	1	1	6	1	1	1	6	6	0	1560350085	0.3918159008
1560350086	1.291739941	6	68	2	1	1	6	2	2	2	6	7	0	1560350086	0.3918180466
1560350087	1.299929857	6	69	2	1	1	6	3	1	1	6	7	1	1560350088	0.608468771
1560350089	1.291760921	6	70	2	1	1	6	4	1	2	6	7	1	1560350089	0.5833978653
1560350090	1.291661978	6	71	2	1	1	6	5	1	1	6	6	1	1560350090	0.5750219822
1560350091	1.291665077	6	72	2	1	1	6	6	1	2	6	7	0	1560350092	0.5752260685
1560350092	1.291673899	6	73	2	1	1	6	7	1	1	6	8	0	1560350093	0.4752309322
1560350094	1.291659117	6	74	2	1	1	6	8	2	1	6	9	0	1560350094	0.4168190956
1560350095	1.291661024	6	75	2	1	1	6	9	2	1	6	9	1	1560350095	0.4750430584
1560350096	1.291671038	6	76	2	1	1	6	10	2	1	6	9	1	1560350097	0.5333929062
1560350098	1.291666985	6	77	2	1	1	6	11	2	2	6	8	1	1560350098	0.5584409237
1560350099	1.300086021	6	78	2	1	1	6	12	1	2	6	8	1	1560350099	0.5750908852
1560350100	1.299995899	6	79	2	1	1	6	13	1	1	6	8	1	1560350101	0.6583721638
1560350102	1.291750193	6	80	2	1	1	6	14	1	2	6	7	1	1560350102	0.5417890549
1560350103	1.291666985	6	81	2	1	1	6	15	1	1	6	7	1	1560350103	0.7334470749
1560350104	1.291744947	6	82	2	1	1	6	16	1	2	6	7	1	1560350105	0.6334490776
1560350105	1.291663885	6	83	2	1	1	6	17	2	2	6	6	1	1560350106	0.550041914
1560350107	1.291765928	6	84	2	1	1	6	18	1	2	6	7	0	1560350107	0.691806078
1560350108	1.291661024	6	85	2	1	9	7	1	3	3	6	7	n/a	n/a	n/a
1560350109	1.291659117	6	86	2	1	9	7	2	3	3	6	7	n/a	n/a	n/a
1560350111	1.291746855	6	87	2	1	9	7	3	3	3	6	7	n/a	n/a	n/a
1560350112	1.291676998	6	88	2	1	9	7	4	3	3	6	7	n/a	n/a	n/a
1560350113	1.291674137	6	89	2	1	9	7	5	3	3	6	7	n/a	n/a	n/a
1560350115	1.291622162	6	90	2	1	9	7	6	3	3	6	7	n/a	n/a	n/a
1560350116	1.291670084	6	91	2	1	9	7	7	3	3	6	7	n/a	n/a	n/a
1560350117	1.291749954	6	92	2	1	9	7	8	3	3	6	7	n/a	n/a	n/a
1560350118	1.291666031	6	93	2	1	9	7	9	3	3	6	7	n/a	n/a	n/a
1560350120	1.29166913	6	94	2	1	9	7	10	3	3	6	7	n/a	n/a	n/a
1560350121	1.291719913	6	95	2	1	5	8	1	1	2	6	7	1	1560350121	0.33396101
1560350122	1.299949884	6	96	2	1	5	8	2	1	1	6	7	1	1560350123	0.5417230129
1560350124	1.291664124	6	97	2	1	5	8	3	2	2	6	6	1	1560350124	0.5334620476
1560350125	1.299986124	6	98	2	1	5	8	4	1	2	6	7	0	1560350125	0.6584510803
1560350126	1.300013065	6	99	2	1	5	8	5	1	2	6	7	1	1560350127	0.5668020248
1560350128	1.291659117	6	100	2	1	5	8	6	2	1	6	8	0	1560350128	0.566724062
1560350129	1.299968958	6	101	2	1	5	8	7	2	2	6	9	0	1560350129	0.3750178814
1560350130	1.299954176	6	102	2	1	5	8	8	1	1	6	9	1	1560350131	0.6833879948
1560350132	1.291739941	6	103	2	1	5	8	9	1	2	6	9	1	1560350132	0.5501208305
1560350133	1.291750908	6	104	2	1	5	8	10	1	1	6	8	1	1560350133	0.5501220226
1560350134	1.299998045	6	105	2	1	5	8	11	2	1	6	8	1	1560350134	0.6084589958
1560350135	1.299998999	6	106	2	1	5	8	12	2	2	6	8	1	1560350136	0.5667550564
1560350137	1.29163599	6	107	2	1	5	8	13	1	2	6	7	1	1560350137	0.6251280308
1560350138	1.299962044	6	108	2	1	5	8	14	1	2	6	7	1	1560350138	0.6000449657
1560350139	1.291646957	6	109	2	1	5	8	15	1	2	6	7	1	1560350140	0.6585178375
1560350141	1.291622162	6	110	2	1	5	8	16	1	2	6	6	1	1560350141	0.5584630966
1560350142	1.291670084	6	111	2	1	5	8	17	2	2	6	6	1	1560350142	0.691701889
1560350143	1.291660786	6	112	2	1	5	8	18	2	1	6	6	1	1560350144	0.7418248653
1560350145	1.291744947	6	113	2	1	9	9	1	3	3	6	6	n/a	n/a	n/a
1560350146	1.29166913	6	114	2	1	9	9	2	3	3	6	6	n/a	n/a	n/a
1560350147	1.291615963	6	115	2	1	9	9	3	3	3	6	6	n/a	n/a	n/a
1560350148	1.291649103	6	116	2	1	9	9	4	3	3	6	6	n/a	n/a	n/a
1560350150	1.291769028	6	117	2	1	9	9	5	3	3	6	6	n/a	n/a	n/a
1560350151	1.291671991	6	118	2	1	9	9	6	3	3	6	6	n/a	n/a	n/a
1560350152	1.291674137	6	119	2	1	9	9	7	3	3	6	6	n/a	n/a	n/a
1560350154	1.291599035	6	120	2	1	9	9	8	3	3	6	6	n/a	n/a	n/a
1560350155	1.291675806	6	121	2	1	9	9	9	3	3	6	6	n/a	n/a	n/a
1560350156	1.291616917	6	122	2	1	9	9	10	3	3	6	6	n/a	n/a	n/a
