onset	duration	run_number	trial_number	att_task	seq_acquisition	bar_direction	bar_period	bar_step	stim_noise_ori	stim_stair_val	response_val	probe_time	reaction_time
n/a	n/a	1	1	1	1	9	1	1	3	27819.63961	n/a	n/a	n/a
n/a	n/a	1	2	1	1	9	1	2	3	27820.88855	n/a	n/a	n/a
n/a	n/a	1	3	1	1	9	1	3	3	27822.13839	n/a	n/a	n/a
n/a	n/a	1	4	1	1	9	1	4	3	27823.38835	n/a	n/a	n/a
n/a	n/a	1	5	1	1	9	1	5	3	27824.63772	n/a	n/a	n/a
n/a	n/a	1	6	1	1	9	1	6	3	27825.88826	n/a	n/a	n/a
n/a	n/a	1	7	1	1	9	1	7	3	27827.138	n/a	n/a	n/a
n/a	n/a	1	8	1	1	9	1	8	3	27828.3881	n/a	n/a	n/a
n/a	n/a	1	9	1	1	9	1	9	3	27829.63798	n/a	n/a	n/a
n/a	n/a	1	10	1	1	9	1	10	3	27830.88792	n/a	n/a	n/a
n/a	n/a	1	11	1	1	1	2	1	2	27832.29619	1	n/a	n/a
n/a	n/a	1	12	1	1	1	2	2	1	27833.55489	1	n/a	n/a
n/a	n/a	1	13	1	1	1	2	3	1	27834.80437	0	n/a	n/a
n/a	n/a	1	14	1	1	1	2	4	2	27836.05426	0	n/a	n/a
n/a	n/a	1	15	1	1	1	2	5	1	27837.31243	1	n/a	n/a
n/a	n/a	1	16	1	1	1	2	6	1	27838.56241	1	n/a	n/a
n/a	n/a	1	17	1	1	1	2	7	1	27839.81233	1	n/a	n/a
n/a	n/a	1	18	1	1	1	2	8	2	27841.06241	1	n/a	n/a
n/a	n/a	1	19	1	1	1	2	9	1	27842.3119	1	n/a	n/a
n/a	n/a	1	20	1	1	1	2	10	1	27843.5622	1	n/a	n/a
n/a	n/a	1	21	1	1	1	2	11	2	27844.81209	1	n/a	n/a
n/a	n/a	1	22	1	1	1	2	12	1	27846.06193	1	n/a	n/a
n/a	n/a	1	23	1	1	1	2	13	2	27847.3117	1	n/a	n/a
n/a	n/a	1	24	1	1	1	2	14	2	27848.56144	1	n/a	n/a
n/a	n/a	1	25	1	1	1	2	15	2	27849.81134	1	n/a	n/a
n/a	n/a	1	26	1	1	1	2	16	2	27851.06183	1	n/a	n/a
n/a	n/a	1	27	1	1	1	2	17	2	27852.31164	1	n/a	n/a
n/a	n/a	1	28	1	1	1	2	18	1	27853.56166	0	n/a	n/a
n/a	n/a	1	29	1	1	1	2	19	2	27854.81154	1	n/a	n/a
n/a	n/a	1	30	1	1	1	2	20	2	27856.06135	0	n/a	n/a
n/a	n/a	1	31	1	1	1	2	21	2	27857.3194	1	n/a	n/a
n/a	n/a	1	32	1	1	1	2	22	1	27858.56899	1	n/a	n/a
n/a	n/a	1	33	1	1	1	2	23	2	27859.81922	1	n/a	n/a
n/a	n/a	1	34	1	1	1	2	24	1	27861.06916	1	n/a	n/a
n/a	n/a	1	35	1	1	1	2	25	1	27862.31922	0	n/a	n/a
n/a	n/a	1	36	1	1	1	2	26	1	27863.56905	1	n/a	n/a
n/a	n/a	1	37	1	1	1	2	27	1	27864.81861	1	n/a	n/a
n/a	n/a	1	38	1	1	1	2	28	1	27866.06855	1	n/a	n/a
n/a	n/a	1	39	1	1	1	2	29	1	27867.31849	0	n/a	n/a
n/a	n/a	1	40	1	1	1	2	30	1	27868.5691	n/a	n/a	n/a
n/a	n/a	1	41	1	1	1	2	31	1	27869.81894	n/a	n/a	n/a
n/a	n/a	1	42	1	1	1	2	32	1	27871.06919	n/a	n/a	n/a
n/a	n/a	1	43	1	1	9	3	1	3	27872.4635	n/a	n/a	n/a
n/a	n/a	1	44	1	1	9	3	2	3	27873.71048	n/a	n/a	n/a
n/a	n/a	1	45	1	1	9	3	3	3	27874.96042	n/a	n/a	n/a
n/a	n/a	1	46	1	1	9	3	4	3	27876.21036	n/a	n/a	n/a
n/a	n/a	1	47	1	1	9	3	5	3	27877.46033	n/a	n/a	n/a
n/a	n/a	1	48	1	1	9	3	6	3	27878.71023	n/a	n/a	n/a
n/a	n/a	1	49	1	1	9	3	7	3	27879.96019	n/a	n/a	n/a
n/a	n/a	1	50	1	1	9	3	8	3	27881.21007	n/a	n/a	n/a
n/a	n/a	1	51	1	1	9	3	9	3	27882.45998	n/a	n/a	n/a
n/a	n/a	1	52	1	1	9	3	10	3	27883.70997	n/a	n/a	n/a
n/a	n/a	1	53	1	1	3	4	1	2	27885.09309	1	n/a	n/a
n/a	n/a	1	54	1	1	3	4	2	2	27886.35176	0	n/a	n/a
n/a	n/a	1	55	1	1	3	4	3	1	27887.60119	1	n/a	n/a
n/a	n/a	1	56	1	1	3	4	4	2	27888.85115	1	n/a	n/a
n/a	n/a	1	57	1	1	3	4	5	1	27890.10149	1	n/a	n/a
n/a	n/a	1	58	1	1	3	4	6	1	27891.35144	1	n/a	n/a
n/a	n/a	1	59	1	1	3	4	7	1	27892.60141	1	n/a	n/a
n/a	n/a	1	60	1	1	3	4	8	1	27893.85142	1	n/a	n/a
n/a	n/a	1	61	1	1	3	4	9	2	27895.1007	1	n/a	n/a
n/a	n/a	1	62	1	1	3	4	10	2	27896.35125	1	n/a	n/a
n/a	n/a	1	63	1	1	3	4	11	1	27897.60047	1	n/a	n/a
n/a	n/a	1	64	1	1	3	4	12	2	27898.85053	1	n/a	n/a
n/a	n/a	1	65	1	1	3	4	13	2	27900.1005	1	n/a	n/a
n/a	n/a	1	66	1	1	3	4	14	1	27901.35066	1	n/a	n/a
n/a	n/a	1	67	1	1	3	4	15	1	27902.60961	1	n/a	n/a
n/a	n/a	1	68	1	1	3	4	16	1	27903.8586	1	n/a	n/a
n/a	n/a	1	69	1	1	3	4	17	2	27905.10861	1	n/a	n/a
n/a	n/a	1	70	1	1	3	4	18	1	27906.35865	1	n/a	n/a
n/a	n/a	1	71	1	1	9	5	1	3	27907.74176	n/a	n/a	n/a
n/a	n/a	1	72	1	1	9	5	2	3	27908.9917	n/a	n/a	n/a
n/a	n/a	1	73	1	1	9	5	3	3	27910.24163	n/a	n/a	n/a
n/a	n/a	1	74	1	1	9	5	4	3	27911.49159	n/a	n/a	n/a
n/a	n/a	1	75	1	1	9	5	5	3	27912.74153	n/a	n/a	n/a
n/a	n/a	1	76	1	1	9	5	6	3	27913.99145	n/a	n/a	n/a
n/a	n/a	1	77	1	1	9	5	7	3	27915.24124	n/a	n/a	n/a
n/a	n/a	1	78	1	1	9	5	8	3	27916.49114	n/a	n/a	n/a
n/a	n/a	1	79	1	1	9	5	9	3	27917.74118	n/a	n/a	n/a
n/a	n/a	1	80	1	1	9	5	10	3	27918.99112	n/a	n/a	n/a
n/a	n/a	1	81	1	1	5	6	1	2	27920.38274	1	n/a	n/a
n/a	n/a	1	82	1	1	5	6	2	1	27921.63285	n/a	n/a	n/a
n/a	n/a	1	83	1	1	5	6	3	2	27922.89082	n/a	n/a	n/a
n/a	n/a	1	84	1	1	5	6	4	2	27924.14069	n/a	n/a	n/a
n/a	n/a	1	85	1	1	5	6	5	1	27925.39064	n/a	n/a	n/a
n/a	n/a	1	86	1	1	5	6	6	2	27926.64046	n/a	n/a	n/a
n/a	n/a	1	87	1	1	5	6	7	1	27927.89064	0	n/a	n/a
n/a	n/a	1	88	1	1	5	6	8	2	27929.14056	0	n/a	n/a
n/a	n/a	1	89	1	1	5	6	9	1	27930.39048	0	n/a	n/a
n/a	n/a	1	90	1	1	5	6	10	1	27931.64319	n/a	n/a	n/a
n/a	n/a	1	91	1	1	5	6	11	1	27932.89029	1	n/a	n/a
n/a	n/a	1	92	1	1	5	6	12	1	27934.14058	1	n/a	n/a
n/a	n/a	1	93	1	1	5	6	13	1	27935.3901	1	n/a	n/a
n/a	n/a	1	94	1	1	5	6	14	1	27936.64023	1	n/a	n/a
n/a	n/a	1	95	1	1	5	6	15	2	27937.89008	1	n/a	n/a
n/a	n/a	1	96	1	1	5	6	16	1	27939.14006	1	n/a	n/a
n/a	n/a	1	97	1	1	5	6	17	1	27940.38981	1	n/a	n/a
n/a	n/a	1	98	1	1	5	6	18	1	27941.6399	0	n/a	n/a
n/a	n/a	1	99	1	1	5	6	19	2	27942.88968	1	n/a	n/a
n/a	n/a	1	100	1	1	5	6	20	2	27944.13948	1	n/a	n/a
n/a	n/a	1	101	1	1	5	6	21	1	27945.3896	n/a	n/a	n/a
n/a	n/a	1	102	1	1	5	6	22	1	27946.63964	n/a	n/a	n/a
n/a	n/a	1	103	1	1	5	6	23	1	27947.8895	1	n/a	n/a
n/a	n/a	1	104	1	1	5	6	24	1	27949.13935	n/a	n/a	n/a
n/a	n/a	1	105	1	1	5	6	25	2	27950.38923	1	n/a	n/a
n/a	n/a	1	106	1	1	5	6	26	2	27951.63921	n/a	n/a	n/a
n/a	n/a	1	107	1	1	5	6	27	2	27952.88913	1	n/a	n/a
n/a	n/a	1	108	1	1	5	6	28	2	27954.13916	1	n/a	n/a
n/a	n/a	1	109	1	1	5	6	29	2	27955.38907	1	n/a	n/a
n/a	n/a	1	110	1	1	5	6	30	2	27956.63913	1	n/a	n/a
n/a	n/a	1	111	1	1	5	6	31	2	27957.88884	1	n/a	n/a
n/a	n/a	1	112	1	1	5	6	32	1	27959.13892	1	n/a	n/a
n/a	n/a	1	113	1	1	9	7	1	3	27960.51389	n/a	n/a	n/a
n/a	n/a	1	114	1	1	9	7	2	3	27961.76632	n/a	n/a	n/a
n/a	n/a	1	115	1	1	9	7	3	3	27963.01374	n/a	n/a	n/a
n/a	n/a	1	116	1	1	9	7	4	3	27964.26347	n/a	n/a	n/a
n/a	n/a	1	117	1	1	9	7	5	3	27965.51345	n/a	n/a	n/a
n/a	n/a	1	118	1	1	9	7	6	3	27966.76359	n/a	n/a	n/a
n/a	n/a	1	119	1	1	9	7	7	3	27968.01343	n/a	n/a	n/a
n/a	n/a	1	120	1	1	9	7	8	3	27969.26328	n/a	n/a	n/a
n/a	n/a	1	121	1	1	9	7	9	3	27970.51341	n/a	n/a	n/a
n/a	n/a	1	122	1	1	9	7	10	3	27971.76319	n/a	n/a	n/a
n/a	n/a	1	123	1	1	7	8	1	1	27973.1382	1	n/a	n/a
n/a	n/a	1	124	1	1	7	8	2	1	27974.38757	0	n/a	n/a
n/a	n/a	1	125	1	1	7	8	3	2	27975.63751	0	n/a	n/a
n/a	n/a	1	126	1	1	7	8	4	2	27976.88816	1	n/a	n/a
n/a	n/a	1	127	1	1	7	8	5	1	27978.13846	1	n/a	n/a
n/a	n/a	1	128	1	1	7	8	6	1	27979.38847	1	n/a	n/a
n/a	n/a	1	129	1	1	7	8	7	1	27980.63821	1	n/a	n/a
n/a	n/a	1	130	1	1	7	8	8	2	27981.88815	1	n/a	n/a
n/a	n/a	1	131	1	1	7	8	9	1	27983.13801	1	n/a	n/a
n/a	n/a	1	132	1	1	7	8	10	2	27984.39609	1	n/a	n/a
n/a	n/a	1	133	1	1	7	8	11	1	27985.66257	0	n/a	n/a
n/a	n/a	1	134	1	1	7	8	12	2	27986.92078	0	n/a	n/a
n/a	n/a	1	135	1	1	7	8	13	2	27988.1708	1	n/a	n/a
n/a	n/a	1	136	1	1	7	8	14	2	27989.42083	1	n/a	n/a
n/a	n/a	1	137	1	1	7	8	15	2	27990.66996	1	n/a	n/a
n/a	n/a	1	138	1	1	7	8	16	2	27991.92908	1	n/a	n/a
n/a	n/a	1	139	1	1	7	8	17	1	27993.18753	0	n/a	n/a
n/a	n/a	1	140	1	1	7	8	18	2	27994.43729	0	n/a	n/a
n/a	n/a	1	141	1	1	9	9	1	3	27995.81212	n/a	n/a	n/a
n/a	n/a	1	142	1	1	9	9	2	3	27997.06199	n/a	n/a	n/a
n/a	n/a	1	143	1	1	9	9	3	3	27998.31178	n/a	n/a	n/a
n/a	n/a	1	144	1	1	9	9	4	3	27999.56132	n/a	n/a	n/a
n/a	n/a	1	145	1	1	9	9	5	3	28000.81185	n/a	n/a	n/a
n/a	n/a	1	146	1	1	9	9	6	3	28002.06144	n/a	n/a	n/a
n/a	n/a	1	147	1	1	9	9	7	3	28003.31111	n/a	n/a	n/a
n/a	n/a	1	148	1	1	9	9	8	3	28004.56158	n/a	n/a	n/a
n/a	n/a	1	149	1	1	9	9	9	3	28005.81158	n/a	n/a	n/a
n/a	n/a	1	150	1	1	9	9	10	3	28007.06147	n/a	n/a	n/a
