onset	duration	run_number	trial_number	att_task	seq_acquisition	bar_direction	bar_period	bar_step	stim_noise_ori	stim_stair_val	response_val	probe_time	reaction_time
39655.81154	1.250355577	9	1	1	1	9	1	1	3	8	n/a	n/a	n/a
39657.0706	1.240625765	9	2	1	1	9	1	2	3	8	n/a	n/a	n/a
39658.31963	1.240898578	9	3	1	1	9	1	3	3	8	n/a	n/a	n/a
39659.56952	1.24156396	9	4	1	1	9	1	4	3	8	n/a	n/a	n/a
39660.81937	1.244248646	9	5	1	1	9	1	5	3	8	n/a	n/a	n/a
39662.06938	1.241392377	9	6	1	1	9	1	6	3	8	n/a	n/a	n/a
39663.31933	1.241554741	9	7	1	1	9	1	7	3	8	n/a	n/a	n/a
39664.56921	1.241250594	9	8	1	1	9	1	8	3	8	n/a	n/a	n/a
39665.81898	1.241742158	9	9	1	1	9	1	9	3	8	n/a	n/a	n/a
39667.0691	1.241085707	9	10	1	1	9	1	10	3	8	n/a	n/a	n/a
39668.47083	1.248165605	9	11	1	1	1	2	1	2	8	1	39668.8452	0.309311718
39669.72723	1.266726443	9	12	1	1	1	2	2	2	8	1	39670.09396	0.559129863
39671.00203	1.275018448	9	13	1	1	1	2	3	2	7	1	39671.3689	0.524742333
39672.28541	1.241538052	9	14	1	1	1	2	4	2	7	1	39672.65202	0.482846171
39673.53531	1.258345406	9	15	1	1	1	2	5	2	8	0	39673.90181	0.669389727
39674.80177	1.27498061	9	16	1	1	1	2	6	2	9	0	39675.16875	0.674954561
39676.08482	1.242004987	9	17	1	1	1	2	7	1	9	1	39676.45197	0.683485069
39677.33523	1.241435557	9	18	1	1	1	2	8	1	9	1	39677.70156	0.742115625
39678.58496	1.241617451	9	19	1	1	1	2	9	2	10	0	39678.95171	0.708517268
39679.83445	1.241934427	9	20	1	1	1	2	10	1	10	1	39680.20139	0.70870456
39681.08479	1.241256032	9	21	1	1	1	2	11	1	10	1	39681.45138	0.608711448
39682.3343	1.241977053	9	22	1	1	1	2	12	2	11	0	39682.70133	0.56672472
39683.58466	1.241733092	9	23	1	1	1	2	13	1	11	1	39683.95137	0.566840701
39684.8343	1.241973476	9	24	1	1	1	2	14	1	11	1	39685.20129	0.532950901
39686.08461	1.241525061	9	25	1	1	1	2	15	1	10	1	39686.45121	0.575164525
39687.3345	1.25818318	9	26	1	1	1	2	16	1	10	1	39687.71744	0.616925053
39688.60093	1.249956971	9	27	1	1	1	2	17	2	10	1	39688.96787	0.541220207
39689.85896	1.24183783	9	28	1	1	1	2	18	2	9	1	39690.22585	0.583901644
39691.1089	1.249885853	9	29	1	1	1	2	19	2	9	1	39691.47568	0.52769635
39692.36735	1.241957732	9	30	1	1	1	2	20	1	10	0	39692.73436	0.566883812
39693.61754	1.241693885	9	31	1	1	1	2	21	2	10	1	39693.98378	0.600083205
39694.86755	1.241509579	9	32	1	1	1	2	22	1	10	1	39695.23411	0.68327757
39696.11725	1.241723527	9	33	1	1	1	2	23	1	9	1	39696.48348	0.708556025
39697.3674	1.240967778	9	34	1	1	1	2	24	2	9	1	39697.73406	0.691834207
39698.61731	1.241646475	9	35	1	1	1	2	25	1	10	0	39698.98335	0.650671766
39699.86721	1.241615116	9	36	1	1	1	2	26	1	10	1	39700.23394	0.666509365
39701.11712	1.2415686	9	37	1	1	1	2	27	2	10	1	39701.48391	0.616754669
39702.36718	1.241088248	9	38	1	1	1	2	28	2	11	0	39702.73339	0.742084515
39703.61705	1.24988773	9	39	1	1	1	2	29	2	12	0	39703.98368	0.716531117
39704.87521	1.249769359	9	40	1	1	1	2	30	1	12	1	39705.24211	0.783319221
39706.13359	1.241504697	9	41	1	1	1	2	31	2	12	1	39706.50015	0.741403894
39707.38388	1.249475998	9	42	1	1	1	2	32	1	12	1	39707.75013	0.866335905
39708.77667	1.24825704	9	43	1	1	9	3	1	3	11	n/a	n/a	n/a
39710.03356	1.241381868	9	44	1	1	9	3	2	3	11	n/a	n/a	n/a
39711.28262	1.242260117	9	45	1	1	9	3	3	3	11	n/a	n/a	n/a
39712.53318	1.241034792	9	46	1	1	9	3	4	3	11	n/a	n/a	n/a
39713.78313	1.249372669	9	47	1	1	9	3	5	3	11	n/a	n/a	n/a
39715.04154	1.240967979	9	48	1	1	9	3	6	3	11	n/a	n/a	n/a
39716.29158	1.241451704	9	49	1	1	9	3	7	3	11	n/a	n/a	n/a
39717.54124	1.241872437	9	50	1	1	9	3	8	3	11	n/a	n/a	n/a
39718.79126	1.241628885	9	51	1	1	9	3	9	3	11	n/a	n/a	n/a
39720.04107	1.241585454	9	52	1	1	9	3	10	3	11	n/a	n/a	n/a
39721.42493	1.266182947	9	53	1	1	3	4	1	1	12	0	39721.8018	0.305968421
39722.69967	1.282251737	9	54	1	1	3	4	2	1	12	1	39723.06607	0.633227885
39723.99091	1.291514166	9	55	1	1	3	4	3	1	12	1	39724.366	0.599893194
39725.29089	1.275131635	9	56	1	1	3	4	4	2	11	1	39725.65694	0.625062578
39726.57405	1.283286014	9	57	1	1	3	4	5	1	11	1	39726.94081	0.491346533
39727.86584	1.274467828	9	58	1	1	3	4	6	2	11	1	39728.23176	0.592565922
39729.149	1.283188715	9	59	1	1	3	4	7	2	10	1	39729.52361	0.558127867
39730.44066	1.275085221	9	60	1	1	3	4	8	1	10	1	39730.80702	0.522423144
39731.72317	1.242629029	9	61	1	1	3	4	9	2	10	1	39732.09045	0.608438208
39732.97386	1.274676668	9	62	1	1	3	4	10	2	9	1	39733.34054	0.674336713
39734.25669	1.283685287	9	63	1	1	3	4	11	1	9	1	39734.62333	0.517189912
39735.54786	1.266925023	9	64	1	1	3	4	12	2	10	0	39735.9147	0.541967664
39736.82327	1.249979432	9	65	1	1	3	4	13	1	10	1	39737.18952	0.575618877
39738.08182	1.258330533	9	66	1	1	3	4	14	2	10	1	39738.44812	0.550519572
39739.34766	1.258429183	9	67	1	1	3	4	15	1	9	1	39739.7232	0.533718954
39740.61451	1.241694288	9	68	1	1	3	4	16	1	10	0	39740.98105	0.475962502
39741.86469	1.25034537	9	69	1	1	3	4	17	2	10	1	39742.23143	0.765831489
39743.12311	1.249929657	9	70	1	1	3	4	18	2	11	0	39743.48994	0.691066768
39744.50617	1.240731379	9	71	1	1	9	5	1	3	11	n/a	n/a	n/a
39745.75604	1.24082403	9	72	1	1	9	5	2	3	11	n/a	n/a	n/a
39747.0059	1.240920211	9	73	1	1	9	5	3	3	11	n/a	n/a	n/a
39748.25591	1.240829329	9	74	1	1	9	5	4	3	11	n/a	n/a	n/a
39749.50584	1.240854219	9	75	1	1	9	5	5	3	11	n/a	n/a	n/a
39750.75584	1.243419975	9	76	1	1	9	5	6	3	11	n/a	n/a	n/a
39752.00612	1.240978522	9	77	1	1	9	5	7	3	11	n/a	n/a	n/a
39753.25557	1.24084508	9	78	1	1	9	5	8	3	11	n/a	n/a	n/a
39754.50554	1.241735001	9	79	1	1	9	5	9	3	11	n/a	n/a	n/a
39755.75525	1.241898078	9	80	1	1	9	5	10	3	11	n/a	n/a	n/a
39757.13053	1.258535526	9	81	1	1	5	6	1	2	11	1	39757.49742	0.874705211
39758.3971	1.275134016	9	82	1	1	5	6	2	2	12	0	39758.76383	0.824849744
39759.68075	1.24144273	9	83	1	1	5	6	3	2	12	1	39760.04727	0.749697022
39760.93047	1.274947692	9	84	1	1	5	6	4	2	12	1	39761.29716	0.758434894
39762.21397	1.249432309	9	85	1	1	5	6	5	2	11	1	39762.5804	0.624693918
39763.47187	1.275230532	9	86	1	1	5	6	6	1	11	1	39763.83886	0.741011385
39764.75547	1.249959802	9	87	1	1	5	6	7	2	12	0	39765.12201	0.641849803
39766.01362	1.275021987	9	88	1	1	5	6	8	1	13	0	39766.3799	0.575234543
39767.29682	1.274840916	9	89	1	1	5	6	9	1	13	1	39767.66351	0.607982027
39768.57976	1.275254852	9	90	1	1	5	6	10	2	13	1	39768.94679	0.625182842
39769.8634	1.283307273	9	91	1	1	5	6	11	1	14	0	39770.22963	0.591825969
39771.15497	1.266651652	9	92	1	1	5	6	12	1	14	1	39771.52165	0.633600843
39772.42995	1.274906306	9	93	1	1	5	6	13	2	14	1	39772.79657	0.566693337
39773.71327	1.274949924	9	94	1	1	5	6	14	1	13	1	39774.07947	0.683865024
39774.99629	1.275092438	9	95	1	1	5	6	15	2	13	1	39775.36346	0.715992842
39776.27976	1.274967195	9	96	1	1	5	6	16	2	13	1	39776.64644	0.7160761
39777.56309	1.26607735	9	97	1	1	5	6	17	1	12	1	39777.92916	0.599924605
39778.83757	1.27512218	9	98	1	1	5	6	18	1	12	1	39779.20445	0.58320538
39780.12112	1.275969733	9	99	1	1	5	6	19	1	12	1	39780.48787	0.550024819
39781.40405	1.258698042	9	100	1	1	5	6	20	2	11	1	39781.77379	0.713724398
39782.67085	1.275076547	9	101	1	1	5	6	21	1	11	1	39783.03776	0.824938443
39783.95428	1.241403601	9	102	1	1	5	6	22	2	11	1	39784.32032	0.725752588
39785.20367	1.242093785	9	103	1	1	5	6	23	1	10	1	39785.57074	0.74994298
39786.45377	1.241841778	9	104	1	1	5	6	24	1	10	1	39786.8206	0.758310245
39787.7038	1.241870329	9	105	1	1	5	6	25	1	10	1	39788.07072	0.850072575
39788.95404	1.241497279	9	106	1	1	5	6	26	1	10	1	39789.32065	0.833162697
39790.20392	1.241677688	9	107	1	1	5	6	27	1	10	0	39790.57045	0.766911589
39791.45389	1.241563615	9	108	1	1	5	6	28	2	10	1	39791.82053	0.7664792
39792.70381	1.258172119	9	109	1	1	5	6	29	1	10	1	39793.07875	0.741683645
39793.97043	1.241538489	9	110	1	1	5	6	30	2	9	1	39794.33709	0.741239571
39795.22029	1.241651357	9	111	1	1	5	6	31	1	10	0	39795.58692	0.716613308
39796.4703	1.241639325	9	112	1	1	5	6	32	1	10	1	39796.83699	0.583582024
39797.84534	1.241390546	9	113	1	1	9	7	1	3	10	n/a	n/a	n/a
39799.09516	1.241425052	9	114	1	1	9	7	2	3	10	n/a	n/a	n/a
39800.34508	1.241634634	9	115	1	1	9	7	3	3	10	n/a	n/a	n/a
39801.595	1.241602229	9	116	1	1	9	7	4	3	10	n/a	n/a	n/a
39802.84495	1.241638397	9	117	1	1	9	7	5	3	10	n/a	n/a	n/a
39804.0948	1.241626638	9	118	1	1	9	7	6	3	10	n/a	n/a	n/a
39805.34477	1.24168471	9	119	1	1	9	7	7	3	10	n/a	n/a	n/a
39806.59469	1.249986411	9	120	1	1	9	7	8	3	10	n/a	n/a	n/a
39807.85288	1.241724228	9	121	1	1	9	7	9	3	10	n/a	n/a	n/a
39809.10296	1.241631065	9	122	1	1	9	7	10	3	10	n/a	n/a	n/a
39810.47823	1.252135634	9	123	1	1	7	8	1	2	11	0	39810.85283	0.500849003
39811.73596	1.241795761	9	124	1	1	7	8	2	2	12	0	39812.10239	0.491642837
39812.98598	1.241242524	9	125	1	1	7	8	3	2	13	0	39813.35279	0.566549648
39814.23555	1.258688399	9	126	1	1	7	8	4	2	13	1	39814.60209	0.467146118
39815.50254	1.266648767	9	127	1	1	7	8	5	2	13	1	39815.86926	0.461837628
39816.77714	1.266755182	9	128	1	1	7	8	6	2	12	1	39817.14382	0.600538465
39818.05233	1.274568845	9	129	1	1	7	8	7	2	12	1	39818.41842	0.675337922
39819.33531	1.258686336	9	130	1	1	7	8	8	1	12	1	39819.70227	0.583182816
39820.60161	1.266651397	9	131	1	1	7	8	9	2	11	1	39820.96831	0.550217199
39821.87663	1.258872053	9	132	1	1	7	8	10	1	11	1	39822.24393	0.633474269
39823.14383	1.291632003	9	133	1	1	7	8	11	1	11	1	39823.51817	0.583426682
39824.44362	1.258291854	9	134	1	1	7	8	12	2	10	1	39824.81002	0.650546544
39825.7103	1.257608272	9	135	1	1	7	8	13	2	10	1	39826.07653	0.633426129
39826.97695	1.249940489	9	136	1	1	7	8	14	2	10	1	39827.34363	0.733244583
39828.23537	1.282596452	9	137	1	1	7	8	15	1	11	0	39828.60962	0.659199925
39829.52629	1.250480424	9	138	1	1	7	8	16	2	11	1	39829.89358	0.657769124
39830.78443	1.291779862	9	139	1	1	7	8	17	2	11	1	39831.15166	0.675158339
39832.08478	1.241830295	9	140	1	1	7	8	18	1	10	1	39832.45204	0.67397255
39833.46052	1.24099584	9	141	1	1	9	9	1	3	10	n/a	n/a	n/a
39834.70989	1.241811728	9	142	1	1	9	9	2	3	10	n/a	n/a	n/a
39835.95995	1.241830383	9	143	1	1	9	9	3	3	10	n/a	n/a	n/a
39837.20989	1.241479808	9	144	1	1	9	9	4	3	10	n/a	n/a	n/a
39838.45961	1.241607183	9	145	1	1	9	9	5	3	10	n/a	n/a	n/a
39839.70959	1.242075439	9	146	1	1	9	9	6	3	10	n/a	n/a	n/a
39840.95973	1.244264852	9	147	1	1	9	9	7	3	10	n/a	n/a	n/a
39842.20954	1.241917027	9	148	1	1	9	9	8	3	10	n/a	n/a	n/a
39843.45958	1.24074895	9	149	1	1	9	9	9	3	10	n/a	n/a	n/a
39844.70964	1.241197712	9	150	1	1	9	9	10	3	10	n/a	n/a	n/a
