onset	duration	run_number	trial_number	att_task	seq_acquisition	bar_direction	bar_period	bar_step	stim_noise_ori	stim_stair_val	response_val	probe_time	reaction_time
n/a	n/a	3	1	1	1	9	1	1	3	28336.8195	n/a	n/a	n/a
n/a	n/a	3	2	1	1	9	1	2	3	28338.06844	n/a	n/a	n/a
n/a	n/a	3	3	1	1	9	1	3	3	28339.31838	n/a	n/a	n/a
n/a	n/a	3	4	1	1	9	1	4	3	28340.5683	n/a	n/a	n/a
n/a	n/a	3	5	1	1	9	1	5	3	28341.81825	n/a	n/a	n/a
n/a	n/a	3	6	1	1	9	1	6	3	28343.0682	n/a	n/a	n/a
n/a	n/a	3	7	1	1	9	1	7	3	28344.31808	n/a	n/a	n/a
n/a	n/a	3	8	1	1	9	1	8	3	28345.5681	n/a	n/a	n/a
n/a	n/a	3	9	1	1	9	1	9	3	28346.81792	n/a	n/a	n/a
n/a	n/a	3	10	1	1	9	1	10	3	28348.06781	n/a	n/a	n/a
n/a	n/a	3	11	1	1	1	2	1	1	28349.47591	n/a	n/a	n/a
n/a	n/a	3	12	1	1	1	2	2	2	28350.72581	n/a	n/a	n/a
n/a	n/a	3	13	1	1	1	2	3	2	28351.99255	1	n/a	n/a
n/a	n/a	3	14	1	1	1	2	4	2	28353.24254	0	n/a	n/a
n/a	n/a	3	15	1	1	1	2	5	1	28354.49251	1	n/a	n/a
n/a	n/a	3	16	1	1	1	2	6	2	28355.74247	1	n/a	n/a
n/a	n/a	3	17	1	1	1	2	7	1	28356.99241	1	n/a	n/a
n/a	n/a	3	18	1	1	1	2	8	2	28358.24235	1	n/a	n/a
n/a	n/a	3	19	1	1	1	2	9	2	28359.49212	1	n/a	n/a
n/a	n/a	3	20	1	1	1	2	10	1	28360.74169	1	n/a	n/a
n/a	n/a	3	21	1	1	1	2	11	2	28361.99208	1	n/a	n/a
n/a	n/a	3	22	1	1	1	2	12	1	28363.24161	0	n/a	n/a
n/a	n/a	3	23	1	1	1	2	13	2	28364.492	1	n/a	n/a
n/a	n/a	3	24	1	1	1	2	14	2	28365.74183	1	n/a	n/a
n/a	n/a	3	25	1	1	1	2	15	1	28366.99167	1	n/a	n/a
n/a	n/a	3	26	1	1	1	2	16	2	28368.24192	1	n/a	n/a
n/a	n/a	3	27	1	1	1	2	17	2	28369.49147	1	n/a	n/a
n/a	n/a	3	28	1	1	1	2	18	2	28370.74164	0	n/a	n/a
n/a	n/a	3	29	1	1	1	2	19	2	28371.99149	1	n/a	n/a
n/a	n/a	3	30	1	1	1	2	20	1	28373.2416	1	n/a	n/a
n/a	n/a	3	31	1	1	1	2	21	2	28374.49116	1	n/a	n/a
n/a	n/a	3	32	1	1	1	2	22	2	28375.74105	1	n/a	n/a
n/a	n/a	3	33	1	1	1	2	23	1	28376.99046	1	n/a	n/a
n/a	n/a	3	34	1	1	1	2	24	1	28378.24089	0	n/a	n/a
n/a	n/a	3	35	1	1	1	2	25	2	28379.49937	n/a	n/a	n/a
n/a	n/a	3	36	1	1	1	2	26	1	28380.74922	0	n/a	n/a
n/a	n/a	3	37	1	1	1	2	27	2	28381.99917	1	n/a	n/a
n/a	n/a	3	38	1	1	1	2	28	1	28383.24919	1	n/a	n/a
n/a	n/a	3	39	1	1	1	2	29	1	28384.49921	1	n/a	n/a
n/a	n/a	3	40	1	1	1	2	30	2	28385.74903	1	n/a	n/a
n/a	n/a	3	41	1	1	1	2	31	2	28386.99897	1	n/a	n/a
n/a	n/a	3	42	1	1	1	2	32	1	28388.24893	1	n/a	n/a
n/a	n/a	3	43	1	1	9	3	1	3	28389.64078	n/a	n/a	n/a
n/a	n/a	3	44	1	1	9	3	2	3	28390.89066	n/a	n/a	n/a
n/a	n/a	3	45	1	1	9	3	3	3	28392.14057	n/a	n/a	n/a
n/a	n/a	3	46	1	1	9	3	4	3	28393.39029	n/a	n/a	n/a
n/a	n/a	3	47	1	1	9	3	5	3	28394.64046	n/a	n/a	n/a
n/a	n/a	3	48	1	1	9	3	6	3	28395.8903	n/a	n/a	n/a
n/a	n/a	3	49	1	1	9	3	7	3	28397.14016	n/a	n/a	n/a
n/a	n/a	3	50	1	1	9	3	8	3	28398.38991	n/a	n/a	n/a
n/a	n/a	3	51	1	1	9	3	9	3	28399.64001	n/a	n/a	n/a
n/a	n/a	3	52	1	1	9	3	10	3	28400.89003	n/a	n/a	n/a
n/a	n/a	3	53	1	1	3	4	1	1	28402.27312	0	n/a	n/a
n/a	n/a	3	54	1	1	3	4	2	1	28403.52303	1	n/a	n/a
n/a	n/a	3	55	1	1	3	4	3	1	28404.773	1	n/a	n/a
n/a	n/a	3	56	1	1	3	4	4	1	28406.02302	1	n/a	n/a
n/a	n/a	3	57	1	1	3	4	5	2	28407.27278	1	n/a	n/a
n/a	n/a	3	58	1	1	3	4	6	1	28408.52284	1	n/a	n/a
n/a	n/a	3	59	1	1	3	4	7	1	28409.77272	0	n/a	n/a
n/a	n/a	3	60	1	1	3	4	8	1	28411.02277	1	n/a	n/a
n/a	n/a	3	61	1	1	3	4	9	2	28412.28092	1	n/a	n/a
n/a	n/a	3	62	1	1	3	4	10	1	28413.53924	1	n/a	n/a
n/a	n/a	3	63	1	1	3	4	11	1	28414.7894	1	n/a	n/a
n/a	n/a	3	64	1	1	3	4	12	1	28416.03911	1	n/a	n/a
n/a	n/a	3	65	1	1	3	4	13	2	28417.2892	1	n/a	n/a
n/a	n/a	3	66	1	1	3	4	14	1	28418.53893	1	n/a	n/a
n/a	n/a	3	67	1	1	3	4	15	2	28419.79717	1	n/a	n/a
n/a	n/a	3	68	1	1	3	4	16	1	28421.04762	1	n/a	n/a
n/a	n/a	3	69	1	1	3	4	17	1	28422.29649	0	n/a	n/a
n/a	n/a	3	70	1	1	3	4	18	2	28423.54644	0	n/a	n/a
n/a	n/a	3	71	1	1	9	5	1	3	28424.92151	n/a	n/a	n/a
n/a	n/a	3	72	1	1	9	5	2	3	28426.17197	n/a	n/a	n/a
n/a	n/a	3	73	1	1	9	5	3	3	28427.42168	n/a	n/a	n/a
n/a	n/a	3	74	1	1	9	5	4	3	28428.67157	n/a	n/a	n/a
n/a	n/a	3	75	1	1	9	5	5	3	28429.92167	n/a	n/a	n/a
n/a	n/a	3	76	1	1	9	5	6	3	28431.17169	n/a	n/a	n/a
n/a	n/a	3	77	1	1	9	5	7	3	28432.42134	n/a	n/a	n/a
n/a	n/a	3	78	1	1	9	5	8	3	28433.67144	n/a	n/a	n/a
n/a	n/a	3	79	1	1	9	5	9	3	28434.92072	n/a	n/a	n/a
n/a	n/a	3	80	1	1	9	5	10	3	28436.17089	n/a	n/a	n/a
n/a	n/a	3	81	1	1	5	6	1	1	28437.55464	0	n/a	n/a
n/a	n/a	3	82	1	1	5	6	2	1	28438.80397	n/a	n/a	n/a
n/a	n/a	3	83	1	1	5	6	3	2	28440.05458	1	n/a	n/a
n/a	n/a	3	84	1	1	5	6	4	1	28441.30382	0	n/a	n/a
n/a	n/a	3	85	1	1	5	6	5	2	28442.55437	1	n/a	n/a
n/a	n/a	3	86	1	1	5	6	6	1	28443.80384	0	n/a	n/a
n/a	n/a	3	87	1	1	5	6	7	1	28445.05383	0	n/a	n/a
n/a	n/a	3	88	1	1	5	6	8	2	28446.30403	1	n/a	n/a
n/a	n/a	3	89	1	1	5	6	9	1	28447.55368	1	n/a	n/a
n/a	n/a	3	90	1	1	5	6	10	2	28448.80396	1	n/a	n/a
n/a	n/a	3	91	1	1	5	6	11	2	28450.05363	1	n/a	n/a
n/a	n/a	3	92	1	1	5	6	12	2	28451.30339	1	n/a	n/a
n/a	n/a	3	93	1	1	5	6	13	2	28452.55328	1	n/a	n/a
n/a	n/a	3	94	1	1	5	6	14	2	28453.80317	1	n/a	n/a
n/a	n/a	3	95	1	1	5	6	15	1	28455.05314	1	n/a	n/a
n/a	n/a	3	96	1	1	5	6	16	1	28456.3031	1	n/a	n/a
n/a	n/a	3	97	1	1	5	6	17	1	28457.55319	1	n/a	n/a
n/a	n/a	3	98	1	1	5	6	18	2	28458.80292	1	n/a	n/a
n/a	n/a	3	99	1	1	5	6	19	2	28460.0533	1	n/a	n/a
n/a	n/a	3	100	1	1	5	6	20	1	28461.30315	1	n/a	n/a
n/a	n/a	3	101	1	1	5	6	21	2	28462.55321	1	n/a	n/a
n/a	n/a	3	102	1	1	5	6	22	1	28463.80311	1	n/a	n/a
n/a	n/a	3	103	1	1	5	6	23	1	28465.05297	1	n/a	n/a
n/a	n/a	3	104	1	1	5	6	24	2	28466.30265	1	n/a	n/a
n/a	n/a	3	105	1	1	5	6	25	1	28467.55249	1	n/a	n/a
n/a	n/a	3	106	1	1	5	6	26	2	28468.80245	0	n/a	n/a
n/a	n/a	3	107	1	1	5	6	27	2	28470.05292	1	n/a	n/a
n/a	n/a	3	108	1	1	5	6	28	2	28471.30274	1	n/a	n/a
n/a	n/a	3	109	1	1	5	6	29	2	28472.5528	0	n/a	n/a
n/a	n/a	3	110	1	1	5	6	30	1	28473.80257	0	n/a	n/a
n/a	n/a	3	111	1	1	5	6	31	1	28475.05226	1	n/a	n/a
n/a	n/a	3	112	1	1	5	6	32	2	28476.30212	0	n/a	n/a
n/a	n/a	3	113	1	1	9	7	1	3	28477.67705	n/a	n/a	n/a
n/a	n/a	3	114	1	1	9	7	2	3	28478.92732	n/a	n/a	n/a
n/a	n/a	3	115	1	1	9	7	3	3	28480.17727	n/a	n/a	n/a
n/a	n/a	3	116	1	1	9	7	4	3	28481.42718	n/a	n/a	n/a
n/a	n/a	3	117	1	1	9	7	5	3	28482.67682	n/a	n/a	n/a
n/a	n/a	3	118	1	1	9	7	6	3	28483.92699	n/a	n/a	n/a
n/a	n/a	3	119	1	1	9	7	7	3	28485.17667	n/a	n/a	n/a
n/a	n/a	3	120	1	1	9	7	8	3	28486.42679	n/a	n/a	n/a
n/a	n/a	3	121	1	1	9	7	9	3	28487.67646	n/a	n/a	n/a
n/a	n/a	3	122	1	1	9	7	10	3	28488.92635	n/a	n/a	n/a
n/a	n/a	3	123	1	1	7	8	1	2	28490.30999	0	n/a	n/a
n/a	n/a	3	124	1	1	7	8	2	2	28491.55992	0	n/a	n/a
n/a	n/a	3	125	1	1	7	8	3	2	28492.80993	1	n/a	n/a
n/a	n/a	3	126	1	1	7	8	4	1	28494.05989	1	n/a	n/a
n/a	n/a	3	127	1	1	7	8	5	1	28495.30961	1	n/a	n/a
n/a	n/a	3	128	1	1	7	8	6	1	28496.55968	1	n/a	n/a
n/a	n/a	3	129	1	1	7	8	7	2	28497.8096	1	n/a	n/a
n/a	n/a	3	130	1	1	7	8	8	1	28499.05957	1	n/a	n/a
n/a	n/a	3	131	1	1	7	8	9	2	28500.30946	1	n/a	n/a
n/a	n/a	3	132	1	1	7	8	10	2	28501.56193	1	n/a	n/a
n/a	n/a	3	133	1	1	7	8	11	1	28502.80946	1	n/a	n/a
n/a	n/a	3	134	1	1	7	8	12	1	28504.05925	1	n/a	n/a
n/a	n/a	3	135	1	1	7	8	13	1	28505.30891	1	n/a	n/a
n/a	n/a	3	136	1	1	7	8	14	1	28506.55896	1	n/a	n/a
n/a	n/a	3	137	1	1	7	8	15	1	28507.80828	0	n/a	n/a
n/a	n/a	3	138	1	1	7	8	16	2	28509.05938	1	n/a	n/a
n/a	n/a	3	139	1	1	7	8	17	1	28510.3089	1	n/a	n/a
n/a	n/a	3	140	1	1	7	8	18	1	28511.5593	1	n/a	n/a
n/a	n/a	3	141	1	1	9	9	1	3	28512.9337	n/a	n/a	n/a
n/a	n/a	3	142	1	1	9	9	2	3	28514.18376	n/a	n/a	n/a
n/a	n/a	3	143	1	1	9	9	3	3	28515.43377	n/a	n/a	n/a
n/a	n/a	3	144	1	1	9	9	4	3	28516.68403	n/a	n/a	n/a
n/a	n/a	3	145	1	1	9	9	5	3	28517.93365	n/a	n/a	n/a
n/a	n/a	3	146	1	1	9	9	6	3	28519.18356	n/a	n/a	n/a
n/a	n/a	3	147	1	1	9	9	7	3	28520.43316	n/a	n/a	n/a
n/a	n/a	3	148	1	1	9	9	8	3	28521.68335	n/a	n/a	n/a
n/a	n/a	3	149	1	1	9	9	9	3	28522.93315	n/a	n/a	n/a
n/a	n/a	3	150	1	1	9	9	10	3	28524.18294	n/a	n/a	n/a
