onset	duration	run_number	trial_number	att_task	seq_acquisition	bar_direction	bar_period	bar_step	stim_noise_ori	stim_stair_val	response_val	probe_time	reaction_time
39909.95629	1.241812753	10	1	1	2	9	1	1	3	10	n/a	n/a	n/a
39911.20608	1.241174724	10	2	1	2	9	1	2	3	10	n/a	n/a	n/a
39912.45567	1.241152955	10	3	1	2	9	1	3	3	10	n/a	n/a	n/a
39913.70597	1.240984234	10	4	1	2	9	1	4	3	10	n/a	n/a	n/a
39914.95551	1.241312117	10	5	1	2	9	1	5	3	10	n/a	n/a	n/a
39916.20549	1.241200513	10	6	1	2	9	1	6	3	10	n/a	n/a	n/a
39917.45515	1.241905014	10	7	1	2	9	1	7	3	10	n/a	n/a	n/a
39918.7053	1.241268064	10	8	1	2	9	1	8	3	10	n/a	n/a	n/a
39919.95521	1.241278894	10	9	1	2	9	1	9	3	10	n/a	n/a	n/a
39921.20518	1.241278986	10	10	1	2	9	1	10	3	10	n/a	n/a	n/a
39922.6023	1.252773827	10	11	1	2	1	2	1	1	10	1	39922.97292	0.435425264
39923.86351	1.241801939	10	12	1	2	1	2	2	1	11	0	39924.23007	0.518311422
39925.11293	1.283598575	10	13	1	2	1	2	3	2	11	1	39925.47953	0.608363025
39926.40489	1.250020205	10	14	1	2	1	2	4	2	12	0	39926.77089	0.584222192
39927.6631	1.266946876	10	15	1	2	1	2	5	2	12	1	39928.0299	0.533749348
39928.93846	1.241994991	10	16	1	2	1	2	6	2	13	0	39929.30504	0.566385849
39930.18788	1.274733984	10	17	1	2	1	2	7	2	13	1	39930.55445	0.700284796
39931.47116	1.274667853	10	18	1	2	1	2	8	2	13	1	39931.84013	0.664076486
39932.75428	1.266769404	10	19	1	2	1	2	9	1	12	1	39933.12159	0.590967683
39934.02939	1.283304457	10	20	1	2	1	2	10	1	12	1	39934.4045	0.566323171
39935.32102	1.275021796	10	21	1	2	1	2	11	1	12	1	39935.68769	0.541304208
39936.60357	1.267627825	10	22	1	2	1	2	12	2	11	1	39936.97098	0.657781472
39937.87947	1.241588046	10	23	1	2	1	2	13	2	11	1	39938.24626	0.5656226
39939.12919	1.241676112	10	24	1	2	1	2	14	1	11	1	39939.49527	0.624942803
39940.37922	1.257542287	10	25	1	2	1	2	15	2	10	1	39940.74524	0.583278959
39941.64528	1.249960582	10	26	1	2	1	2	16	1	10	1	39942.01216	0.642384449
39942.90372	1.266262655	10	27	1	2	1	2	17	1	10	1	39943.28728	0.533215801
39944.17944	1.274059859	10	28	1	2	1	2	18	1	9	1	39944.54512	0.608935318
39945.46167	1.283795938	10	29	1	2	1	2	19	1	9	1	39945.83673	0.717440375
39946.75401	1.250090801	10	30	1	2	1	2	20	1	9	1	39947.11977	0.683704642
39948.01153	1.275650241	10	31	1	2	1	2	21	1	8	1	39948.37863	0.658136837
39949.29517	1.283432192	10	32	1	2	1	2	22	2	9	0	39949.66198	0.675130497
39950.58704	1.274706836	10	33	1	2	1	2	23	1	10	0	39950.95328	0.591421079
39951.8701	1.274774583	10	34	1	2	1	2	24	2	10	1	39952.2365	0.741968514
39953.15357	1.249336312	10	35	1	2	1	2	25	1	10	1	39953.52027	0.757625041
39954.4109	1.241944013	10	36	1	2	1	2	26	2	10	0	39954.77841	0.874707735
39955.6608	1.242000314	10	37	1	2	1	2	27	2	11	1	39956.02828	0.824667842
39956.91132	1.249632868	10	38	1	2	1	2	28	2	11	1	39957.27743	0.867171047
39958.16972	1.275101525	10	39	1	2	1	2	29	1	10	1	39958.53683	0.791430913
39959.45238	1.275759216	10	40	1	2	1	2	30	2	10	n/a	39959.8193	n/a
39960.73559	1.268849372	10	41	1	2	1	2	31	1	10	n/a	39961.10218	n/a
39962.01125	1.24041235	10	42	1	2	1	2	32	1	10	1	39962.37787	0.783494805
39963.38778	1.248476349	10	43	1	2	9	3	1	3	10	n/a	n/a	n/a
39964.64439	1.240820254	10	44	1	2	9	3	2	3	10	n/a	n/a	n/a
39965.89468	1.249483691	10	45	1	2	9	3	3	3	10	n/a	n/a	n/a
39967.15145	1.242234028	10	46	1	2	9	3	4	3	10	n/a	n/a	n/a
39968.40181	1.242016955	10	47	1	2	9	3	5	3	10	n/a	n/a	n/a
39969.65189	1.242069872	10	48	1	2	9	3	6	3	10	n/a	n/a	n/a
39970.90135	1.242723149	10	49	1	2	9	3	7	3	10	n/a	n/a	n/a
39972.15246	1.241299559	10	50	1	2	9	3	8	3	10	n/a	n/a	n/a
39973.40191	1.241805293	10	51	1	2	9	3	9	3	10	n/a	n/a	n/a
39974.65198	1.241752979	10	52	1	2	9	3	10	3	10	n/a	n/a	n/a
39976.03619	1.290944904	10	53	1	2	3	4	1	2	10	1	39976.41042	0.567875705
39977.33537	1.274984165	10	54	1	2	3	4	2	2	11	0	39977.70125	0.643000783
39978.61844	1.241735025	10	55	1	2	3	4	3	2	11	1	39978.9854	0.549643589
39979.86834	1.241671387	10	56	1	2	3	4	4	1	11	1	39980.2352	0.616512767
39981.11842	1.24178276	10	57	1	2	3	4	5	1	10	1	39981.48482	0.574844477
39982.36831	1.249834979	10	58	1	2	3	4	6	1	11	0	39982.73538	0.607703549
39983.62671	1.274386361	10	59	1	2	3	4	7	1	11	1	39983.99315	0.51692645
39984.90962	1.241340033	10	60	1	2	3	4	8	1	11	1	39985.27678	0.557540941
39986.15969	1.274731048	10	61	1	2	3	4	9	2	10	1	39986.52661	0.54131508
39987.44279	1.24208571	10	62	1	2	3	4	10	2	10	1	39987.80932	0.534030733
39988.69306	1.274869508	10	63	1	2	3	4	11	2	10	1	39989.05927	0.591537052
39989.97637	1.249269958	10	64	1	2	3	4	12	1	9	1	39990.34289	0.599795148
39991.23476	1.274845468	10	65	1	2	3	4	13	1	9	1	39991.61243	0.563579065
39992.51761	1.250097321	10	66	1	2	3	4	14	2	9	1	39992.88402	0.574899131
39993.77612	1.249255123	10	67	1	2	3	4	15	2	8	1	39994.14278	0.583792268
39995.03442	1.274958446	10	68	1	2	3	4	16	2	9	0	39995.40941	0.583072291
39996.31764	1.241653715	10	69	1	2	3	4	17	1	9	1	39996.68419	0.683658139
39997.56766	1.241372987	10	70	1	2	3	4	18	1	9	1	39997.93426	0.650432472
39998.94333	1.241454304	10	71	1	2	9	5	1	3	9	n/a	n/a	n/a
40000.19189	1.242031419	10	72	1	2	9	5	2	3	9	n/a	n/a	n/a
40001.44223	1.241628211	10	73	1	2	9	5	3	3	9	n/a	n/a	n/a
40002.69217	1.24159368	10	74	1	2	9	5	4	3	9	n/a	n/a	n/a
40003.94185	1.242733427	10	75	1	2	9	5	5	3	9	n/a	n/a	n/a
40005.19176	1.242071851	10	76	1	2	9	5	6	3	9	n/a	n/a	n/a
40006.44196	1.241790347	10	77	1	2	9	5	7	3	9	n/a	n/a	n/a
40007.69198	1.241837199	10	78	1	2	9	5	8	3	9	n/a	n/a	n/a
40008.94193	1.242318488	10	79	1	2	9	5	9	3	9	n/a	n/a	n/a
40010.1913	1.24192745	10	80	1	2	9	5	10	3	9	n/a	n/a	n/a
40011.5666	1.241797827	10	81	1	2	5	6	1	1	10	0	40011.93363	0.333700118
40012.81649	1.250031217	10	82	1	2	5	6	2	2	10	1	40013.18434	0.56580227
40014.07502	1.240858969	10	83	1	2	5	6	3	2	10	1	40014.44168	0.608323605
40015.32487	1.241417379	10	84	1	2	5	6	4	2	9	1	40015.69146	0.516945358
40016.57425	1.242131015	10	85	1	2	5	6	5	1	10	0	40016.94122	0.449979453
40017.82443	1.241979815	10	86	1	2	5	6	6	1	10	1	40018.19133	0.633113796
40019.07458	1.250256849	10	87	1	2	5	6	7	2	11	0	40019.44126	0.608497041
40020.33297	1.244721902	10	88	1	2	5	6	8	2	11	1	40020.69907	0.508768447
40021.58243	1.250167293	10	89	1	2	5	6	9	1	12	0	40021.94918	0.500562078
40022.8409	1.241963425	10	90	1	2	5	6	10	2	13	0	40023.20744	0.617191569
40024.09103	1.241210403	10	91	1	2	5	6	11	1	13	1	40024.45739	0.508307604
40025.34096	1.241811853	10	92	1	2	5	6	12	1	13	1	40025.70779	0.591596052
40026.59088	1.241365106	10	93	1	2	5	6	13	1	12	1	40026.95741	0.491560047
40027.84067	1.241980717	10	94	1	2	5	6	14	2	13	0	40028.20766	0.508131106
40029.09087	1.241674864	10	95	1	2	5	6	15	2	13	1	40029.45758	0.458411656
40030.3407	1.241813431	10	96	1	2	5	6	16	1	14	0	40030.70753	0.491735474
40031.59049	1.257900503	10	97	1	2	5	6	17	1	14	1	40031.95749	0.457744025
40032.85702	1.258484127	10	98	1	2	5	6	18	2	14	1	40033.2241	0.716023596
40034.12323	1.242204369	10	99	1	2	5	6	19	2	13	1	40034.49088	0.615900612
40035.37389	1.275006308	10	100	1	2	5	6	20	2	13	1	40035.74052	0.558392755
40036.65651	1.267427581	10	101	1	2	5	6	21	1	13	1	40037.02367	0.54943677
40037.93209	1.283294324	10	102	1	2	5	6	22	1	12	1	40038.29857	0.591355751
40039.223	1.250952348	10	103	1	2	5	6	23	2	12	1	40039.59069	0.624953495
40040.48194	1.241441908	10	104	1	2	5	6	24	1	12	1	40040.84824	0.641714279
40041.73182	1.266886453	10	105	1	2	5	6	25	1	11	1	40042.10628	0.674867548
40043.00629	1.250601689	10	106	1	2	5	6	26	1	11	1	40043.37378	0.724117496
40044.26496	1.241049428	10	107	1	2	5	6	27	1	11	1	40044.63178	0.732957751
40045.51454	1.275501786	10	108	1	2	5	6	28	1	11	1	40045.88148	0.867079178
40046.79822	1.241207337	10	109	1	2	5	6	29	2	10	1	40047.16493	0.757849595
40048.0475	1.250698448	10	110	1	2	5	6	30	2	11	0	40048.41449	0.767688447
40049.30585	1.275576796	10	111	1	2	5	6	31	1	11	1	40049.67293	0.749971375
40050.58991	1.274765924	10	112	1	2	5	6	32	1	11	1	40050.95587	0.694719673
40051.99848	1.240636206	10	113	1	2	9	7	1	3	11	n/a	n/a	n/a
40053.24727	1.242302572	10	114	1	2	9	7	2	3	11	n/a	n/a	n/a
40054.49779	1.241949902	10	115	1	2	9	7	3	3	11	n/a	n/a	n/a
40055.74779	1.241829443	10	116	1	2	9	7	4	3	11	n/a	n/a	n/a
40056.99777	1.241565898	10	117	1	2	9	7	5	3	11	n/a	n/a	n/a
40058.24776	1.240702343	10	118	1	2	9	7	6	3	11	n/a	n/a	n/a
40059.49745	1.241978058	10	119	1	2	9	7	7	3	11	n/a	n/a	n/a
40060.7475	1.250027756	10	120	1	2	9	7	8	3	11	n/a	n/a	n/a
40062.00516	1.241561705	10	121	1	2	9	7	9	3	11	n/a	n/a	n/a
40063.25528	1.242279395	10	122	1	2	9	7	10	3	11	n/a	n/a	n/a
40064.6304	1.266868749	10	123	1	2	7	8	1	2	12	0	40064.99753	0.36693078
40065.90474	1.276383031	10	124	1	2	7	8	2	1	12	1	40066.27149	0.542191329
40067.18873	1.248825922	10	125	1	2	7	8	3	2	12	1	40067.55543	0.541503563
40068.44664	1.275231186	10	126	1	2	7	8	4	2	11	1	40068.81327	0.592318346
40069.73033	1.274483916	10	127	1	2	7	8	5	2	11	1	40070.09636	0.734120485
40071.01336	1.249908251	10	128	1	2	7	8	6	2	11	1	40071.38031	0.63323052
40072.2718	1.258368284	10	129	1	2	7	8	7	1	10	1	40072.63729	0.559143432
40073.53717	1.242935647	10	130	1	2	7	8	8	2	10	1	40073.90411	0.526046048
40074.78715	1.249953203	10	131	1	2	7	8	9	2	10	1	40075.15385	0.551036557
40076.04671	1.283200705	10	132	1	2	7	8	10	1	9	1	40076.41277	0.60777085
40077.3369	1.250114397	10	133	1	2	7	8	11	1	9	1	40077.70425	0.52577588
40078.59588	1.250473927	10	134	1	2	7	8	12	2	10	0	40078.96283	0.63397697
40079.85356	1.242206999	10	135	1	2	7	8	13	2	10	1	40080.22141	0.699930028
40081.10388	1.241945791	10	136	1	2	7	8	14	2	10	1	40081.47108	0.702830767
40082.3542	1.249400933	10	137	1	2	7	8	15	2	9	1	40082.72102	0.708422082
40083.61269	1.241527758	10	138	1	2	7	8	16	2	9	1	40083.97972	0.658189185
40084.86237	1.250141378	10	139	1	2	7	8	17	2	9	1	40085.22958	0.708031787
40086.12049	1.250508326	10	140	1	2	7	8	18	2	8	1	40086.48723	0.742325246
40087.50448	1.24153554	10	141	1	2	9	9	1	3	8	n/a	n/a	n/a
40088.75436	1.241536528	10	142	1	2	9	9	2	3	8	n/a	n/a	n/a
40090.00431	1.241649082	10	143	1	2	9	9	3	3	8	n/a	n/a	n/a
40091.25419	1.241635263	10	144	1	2	9	9	4	3	8	n/a	n/a	n/a
40092.50415	1.241619725	10	145	1	2	9	9	5	3	8	n/a	n/a	n/a
40093.75399	1.258031333	10	146	1	2	9	9	6	3	8	n/a	n/a	n/a
40095.02004	1.241983579	10	147	1	2	9	9	7	3	8	n/a	n/a	n/a
40096.27009	1.250121393	10	148	1	2	9	9	8	3	8	n/a	n/a	n/a
40097.52835	1.241951978	10	149	1	2	9	9	9	3	8	n/a	n/a	n/a
40098.77882	1.241461441	10	150	1	2	9	9	10	3	8	n/a	n/a	n/a
