onset	duration	run_number	trial_number	att_task	seq_acquisition	bar_direction	bar_period	bar_step	stim_noise_ori	stim_stair_val	response_val	probe_time	reaction_time
38162.27665	1.250718231	4	1	1	2	9	1	1	3	9	n/a	n/a	n/a
38163.53532	1.240887544	4	2	1	2	9	1	2	3	9	n/a	n/a	n/a
38164.78462	1.241559894	4	3	1	2	9	1	3	3	9	n/a	n/a	n/a
38166.03456	1.241456721	4	4	1	2	9	1	4	3	9	n/a	n/a	n/a
38167.28447	1.258369056	4	5	1	2	9	1	5	3	9	n/a	n/a	n/a
38168.55095	1.241808892	4	6	1	2	9	1	6	3	9	n/a	n/a	n/a
38169.80086	1.241746227	4	7	1	2	9	1	7	3	9	n/a	n/a	n/a
38171.05064	1.241918785	4	8	1	2	9	1	8	3	9	n/a	n/a	n/a
38172.30061	1.241960433	4	9	1	2	9	1	9	3	9	n/a	n/a	n/a
38173.55061	1.241381386	4	10	1	2	9	1	10	3	9	n/a	n/a	n/a
38174.95296	1.256025126	4	11	1	2	1	2	1	2	9	n/a	38175.33483	n/a
38176.21748	1.241132506	4	12	1	2	1	2	2	1	10	0	38176.58342	0.637008851
38177.46709	1.241260344	4	13	1	2	1	2	3	1	10	1	38177.83347	0.652611992
38178.71734	1.241477896	4	14	1	2	1	2	4	2	10	1	38179.08319	0.696461575
38179.96695	1.241304607	4	15	1	2	1	2	5	1	9	1	38180.33327	0.650556883
38181.21675	1.241877797	4	16	1	2	1	2	6	1	10	0	38181.58321	0.701152293
38182.46706	1.24156415	4	17	1	2	1	2	7	1	10	1	38182.8333	0.633630264
38183.71681	1.241601673	4	18	1	2	1	2	8	2	10	1	38184.08363	0.658367079
38184.96684	1.258181484	4	19	1	2	1	2	9	2	9	1	38185.35009	0.557859321
38186.23303	1.2584116	4	20	1	2	1	2	10	2	9	1	38186.59994	0.682914214
38187.49989	1.283360939	4	21	1	2	1	2	11	1	9	1	38187.89175	0.566260124
38188.79159	1.315965657	4	22	1	2	1	2	12	1	8	1	38189.19161	0.674508179
38190.11614	1.25849672	4	23	1	2	1	2	13	1	8	1	38190.49929	0.541628982
38191.55577	1.293446332	4	24	1	2	1	2	14	2	8	1	38191.94465	0.630149506
38192.85751	1.309002678	4	25	1	2	1	2	15	2	7	1	38193.2582	0.508343924
38194.17474	1.29960916	4	26	1	2	1	2	16	2	7	1	38194.54925	0.658278106
38195.48288	1.258307659	4	27	1	2	1	2	17	1	7	1	38195.85789	0.583300984
38196.74883	1.299853291	4	28	1	2	1	2	18	2	6	1	38197.13328	0.649649122
38198.05707	1.325630469	4	29	1	2	1	2	19	1	7	0	38198.45714	0.575767639
38199.39076	1.307750872	4	30	1	2	1	2	20	2	7	1	38199.77423	0.633008514
38200.70758	1.316597817	4	31	1	2	1	2	21	2	7	1	38201.10698	0.550288557
38202.03239	1.308362697	4	32	1	2	1	2	22	2	6	1	38202.43239	0.500287625
38203.3484	1.316737538	4	33	1	2	1	2	23	2	6	1	38203.74853	0.492463551
38204.67371	1.300028562	4	34	1	2	1	2	24	2	6	n/a	38205.07382	n/a
38205.98231	1.315876465	4	35	1	2	1	2	25	2	7	0	38206.38275	0.607868435
38207.3072	1.316468809	4	36	1	2	1	2	26	1	7	1	38207.69895	0.600162602
38208.63134	1.325231645	4	37	1	2	1	2	27	2	8	0	38209.03222	0.533180321
38209.965	1.308670588	4	38	1	2	1	2	28	1	8	1	38210.36586	0.733202631
38211.28128	1.309007288	4	39	1	2	1	2	29	1	9	0	38211.682	0.574673523
38212.59888	1.324524318	4	40	1	2	1	2	30	1	9	1	38212.99884	0.530970878
38213.93176	1.315998458	4	41	1	2	1	2	31	1	10	0	38214.33164	0.364686187
38215.25695	1.30758247	4	42	1	2	1	2	32	2	11	0	38215.65621	0.259175935
38216.69958	1.248167493	4	43	1	2	9	3	1	3	11	n/a	n/a	n/a
38217.9569	1.241648413	4	44	1	2	9	3	2	3	11	n/a	n/a	n/a
38219.20659	1.240849171	4	45	1	2	9	3	3	3	11	n/a	n/a	n/a
38220.45651	1.244686614	4	46	1	2	9	3	4	3	11	n/a	n/a	n/a
38221.70592	1.242412832	4	47	1	2	9	3	5	3	11	n/a	n/a	n/a
38222.9564	1.240421822	4	48	1	2	9	3	6	3	11	n/a	n/a	n/a
38224.20588	1.240960733	4	49	1	2	9	3	7	3	11	n/a	n/a	n/a
38225.45576	1.250175904	4	50	1	2	9	3	8	3	11	n/a	n/a	n/a
38226.71338	1.242400155	4	51	1	2	9	3	9	3	11	n/a	n/a	n/a
38227.9644	1.241186883	4	52	1	2	9	3	10	3	11	n/a	n/a	n/a
38229.34711	1.308599986	4	53	1	2	3	4	1	1	11	n/a	38229.73941	n/a
38230.66439	1.308071073	4	54	1	2	3	4	2	1	11	n/a	38231.0554	n/a
38231.97992	1.316429218	4	55	1	2	3	4	3	1	11	1	38232.38001	0.743172368
38233.30548	1.333609652	4	56	1	2	3	4	4	1	11	1	38233.70527	0.666803827
38234.64612	1.317431994	4	57	1	2	3	4	5	2	10	1	38235.04628	0.576226249
38235.97202	1.308219656	4	58	1	2	3	4	6	1	10	1	38236.36345	0.541753016
38237.28888	1.32427622	4	59	1	2	3	4	7	2	10	1	38237.68883	0.533551256
38238.62219	1.307911857	4	60	1	2	3	4	8	2	9	1	38239.01313	0.541875681
38239.93864	1.325206417	4	61	1	2	3	4	9	2	9	1	38240.33869	0.516792064
38241.27201	1.317006097	4	62	1	2	3	4	10	1	9	1	38241.66356	0.558100324
38242.59647	1.317232425	4	63	1	2	3	4	11	2	8	1	38242.99644	0.558651937
38243.92187	1.316614845	4	64	1	2	3	4	12	1	8	1	38244.32185	0.499909613
38245.24707	1.324718845	4	65	1	2	3	4	13	1	9	0	38245.64671	0.48358872
38246.58	1.316686605	4	66	1	2	3	4	14	2	9	1	38246.98003	0.566784635
38247.90485	1.308385677	4	67	1	2	3	4	15	2	9	1	38248.305	0.507757976
38249.22136	1.316918133	4	68	1	2	3	4	16	2	10	0	38249.61332	0.632916426
38250.54644	1.324409199	4	69	1	2	3	4	17	2	10	1	38250.94645	0.627425033
38251.8793	1.309025614	4	70	1	2	3	4	18	1	10	1	38252.27137	0.632995195
38253.32191	1.241121376	4	71	1	2	9	5	1	3	10	n/a	n/a	n/a
38254.57122	1.2417083	4	72	1	2	9	5	2	3	10	n/a	n/a	n/a
38255.82127	1.241581363	4	73	1	2	9	5	3	3	10	n/a	n/a	n/a
38257.07115	1.24170947	4	74	1	2	9	5	4	3	10	n/a	n/a	n/a
38258.32111	1.241757491	4	75	1	2	9	5	5	3	10	n/a	n/a	n/a
38259.57115	1.241530969	4	76	1	2	9	5	6	3	10	n/a	n/a	n/a
38260.82106	1.249839098	4	77	1	2	9	5	7	3	10	n/a	n/a	n/a
38262.07918	1.241670478	4	78	1	2	9	5	8	3	10	n/a	n/a	n/a
38263.32906	1.241698835	4	79	1	2	9	5	9	3	10	n/a	n/a	n/a
38264.57911	1.24988456	4	80	1	2	9	5	10	3	10	n/a	n/a	n/a
38265.96379	1.248544779	4	81	1	2	5	6	1	1	11	0	38266.33758	0.366332351
38267.22059	1.241595041	4	82	1	2	5	6	2	1	11	n/a	38267.58727	n/a
38268.47037	1.241962953	4	83	1	2	5	6	3	2	11	1	38268.83717	0.44954142
38269.72044	1.241647274	4	84	1	2	5	6	4	2	12	0	38270.0871	0.616803134
38270.97028	1.241479909	4	85	1	2	5	6	5	2	12	1	38271.33701	0.732723253
38272.22021	1.241918669	4	86	1	2	5	6	6	1	12	1	38272.58701	0.682893136
38273.47029	1.241666751	4	87	1	2	5	6	7	2	11	1	38273.83696	0.700038444
38274.72009	1.241582814	4	88	1	2	5	6	8	2	11	1	38275.08682	0.850251763
38275.97003	1.241949406	4	89	1	2	5	6	9	1	11	1	38276.33683	0.849511709
38277.22012	1.241527496	4	90	1	2	5	6	10	1	12	0	38277.58674	0.683387806
38278.47006	1.241666021	4	91	1	2	5	6	11	1	12	1	38278.83672	0.699641728
38279.7198	1.241745396	4	92	1	2	5	6	12	1	12	1	38280.08658	0.574319702
38280.96992	1.241480694	4	93	1	2	5	6	13	2	11	1	38281.33659	0.627528113
38282.21985	1.241580687	4	94	1	2	5	6	14	1	12	0	38282.58645	0.592729976
38283.4698	1.24153755	4	95	1	2	5	6	15	2	12	1	38283.8364	0.55844406
38284.71959	1.25843187	4	96	1	2	5	6	16	2	12	1	38285.09471	0.550056463
38285.98625	1.241663486	4	97	1	2	5	6	17	1	11	1	38286.35263	0.524625925
38287.23614	1.241771415	4	98	1	2	5	6	18	1	11	1	38287.60239	0.542240882
38288.48596	1.241833794	4	99	1	2	5	6	19	2	11	1	38288.8528	0.60810152
38289.7361	1.241214681	4	100	1	2	5	6	20	2	10	1	38290.10271	0.625005675
38290.98563	1.241676942	4	101	1	2	5	6	21	1	10	1	38291.35256	0.675346897
38292.23604	1.241376769	4	102	1	2	5	6	22	1	10	1	38292.60222	0.825154196
38293.4858	1.241543959	4	103	1	2	5	6	23	1	9	1	38293.8524	0.583574611
38294.73584	1.241225365	4	104	1	2	5	6	24	1	9	1	38295.10238	0.591085596
38295.98574	1.24156376	4	105	1	2	5	6	25	1	9	1	38296.35228	0.583823288
38297.23589	1.258005254	4	106	1	2	5	6	26	1	10	0	38297.60232	0.749780472
38298.5021	1.274459643	4	107	1	2	5	6	27	1	10	1	38298.86902	0.699160972
38299.78518	1.275299424	4	108	1	2	5	6	28	2	10	1	38300.15163	0.592699159
38301.06812	1.242195748	4	109	1	2	5	6	29	2	11	0	38301.43533	0.550118006
38302.31796	1.275508733	4	110	1	2	5	6	30	1	12	0	38302.68537	0.591317067
38303.6019	1.283105979	4	111	1	2	5	6	31	1	12	1	38303.96875	0.624453063
38304.89359	1.274164566	4	112	1	2	5	6	32	2	12	1	38305.26021	0.533472791
38306.29873	1.244649137	4	113	1	2	9	7	1	3	12	n/a	n/a	n/a
38307.552	1.241219519	4	114	1	2	9	7	2	3	12	n/a	n/a	n/a
38308.80093	1.24241861	4	115	1	2	9	7	3	3	12	n/a	n/a	n/a
38310.05209	1.240970058	4	116	1	2	9	7	4	3	12	n/a	n/a	n/a
38311.30173	1.243959066	4	117	1	2	9	7	5	3	12	n/a	n/a	n/a
38312.55098	1.241741286	4	118	1	2	9	7	6	3	12	n/a	n/a	n/a
38313.80121	1.241256249	4	119	1	2	9	7	7	3	12	n/a	n/a	n/a
38315.05104	1.241789097	4	120	1	2	9	7	8	3	12	n/a	n/a	n/a
38316.30133	1.241604359	4	121	1	2	9	7	9	3	12	n/a	n/a	n/a
38317.55057	1.242316467	4	122	1	2	9	7	10	3	12	n/a	n/a	n/a
38318.92577	1.291252949	4	123	1	2	7	8	1	1	11	1	38319.30119	0.316642988
38320.22609	1.283234866	4	124	1	2	7	8	2	2	11	1	38320.59281	0.641800982
38321.51794	1.291384879	4	125	1	2	7	8	3	1	11	1	38321.89265	0.549694624
38322.81682	1.29993119	4	126	1	2	7	8	4	1	12	0	38323.20089	0.53066426
38324.12581	1.299942879	4	127	1	2	7	8	5	1	12	1	38324.50069	0.600439864
38325.43341	1.275667397	4	128	1	2	7	8	6	2	12	1	38325.80073	0.583471492
38326.71654	1.300117989	4	129	1	2	7	8	7	1	11	1	38327.09232	0.491937054
38328.02513	1.283054751	4	130	1	2	7	8	8	2	11	1	38328.40024	0.542183775
38329.31658	1.299368607	4	131	1	2	7	8	9	1	11	1	38329.69185	0.508700617
38330.62538	1.283339781	4	132	1	2	7	8	10	1	10	1	38330.99181	0.541674329
38331.91736	1.257765649	4	133	1	2	7	8	11	2	10	1	38332.30043	0.591447829
38333.18363	1.249721713	4	134	1	2	7	8	12	2	10	1	38333.54907	0.650019696
38334.4418	1.282944987	4	135	1	2	7	8	13	2	9	1	38334.81571	0.642913372
38335.73304	1.275442093	4	136	1	2	7	8	14	2	9	1	38336.1002	0.62488075
38337.01558	1.276207148	4	137	1	2	7	8	15	2	9	1	38337.38232	0.650386419
38338.29905	1.28342455	4	138	1	2	7	8	16	2	8	1	38338.66563	0.66661963
38339.5915	1.290589104	4	139	1	2	7	8	17	1	8	1	38339.97468	0.658274341
38340.89145	1.25834214	4	140	1	2	7	8	18	2	8	1	38341.25747	0.63638862
38342.28227	1.242279033	4	141	1	2	9	9	1	3	8	n/a	n/a	n/a
38343.53256	1.242122914	4	142	1	2	9	9	2	3	8	n/a	n/a	n/a
38344.78195	1.242796134	4	143	1	2	9	9	3	3	8	n/a	n/a	n/a
38346.03293	1.241627128	4	144	1	2	9	9	4	3	8	n/a	n/a	n/a
38347.28258	1.241677596	4	145	1	2	9	9	5	3	8	n/a	n/a	n/a
38348.53268	1.241403797	4	146	1	2	9	9	6	3	8	n/a	n/a	n/a
38349.78195	1.242387538	4	147	1	2	9	9	7	3	8	n/a	n/a	n/a
38351.03271	1.241348465	4	148	1	2	9	9	8	3	8	n/a	n/a	n/a
38352.28261	1.241305292	4	149	1	2	9	9	9	3	8	n/a	n/a	n/a
38353.53249	1.241441918	4	150	1	2	9	9	10	3	8	n/a	n/a	n/a
