onset	duration	run_number	trial_number	att_task	fix_direction	bar_direction	bar_period	bar_step	fix_noise_ori	stim_noise_ori	fix_stair_val	stim_stair_val	response_val	probe_time	reaction_time
1560353395	1.291354895	2	1	2	4	9	1	1	3	3	2	9	n/a	n/a	n/a
1560353396	1.291685104	2	2	2	4	9	1	2	3	3	2	9	n/a	n/a	n/a
1560353398	1.291656971	2	3	2	4	9	1	3	3	3	2	9	n/a	n/a	n/a
1560353399	1.291711092	2	4	2	4	9	1	4	3	3	2	9	n/a	n/a	n/a
1560353400	1.291668892	2	5	2	4	9	1	5	3	3	2	9	n/a	n/a	n/a
1560353402	1.291695833	2	6	2	4	9	1	6	3	3	2	9	n/a	n/a	n/a
1560353403	1.291692019	2	7	2	4	9	1	7	3	3	2	9	n/a	n/a	n/a
1560353404	1.291683912	2	8	2	4	9	1	8	3	3	2	9	n/a	n/a	n/a
1560353405	1.291690826	2	9	2	4	9	1	9	3	3	2	9	n/a	n/a	n/a
1560353407	1.291563988	2	10	2	4	9	1	10	3	3	2	9	n/a	n/a	n/a
1560353408	1.307342052	2	11	2	4	1	2	1	1	1	2	9	1	1560353408	0.8168978691
1560353409	1.300011158	2	12	2	4	1	2	2	2	1	2	8	1	1560353410	0.7501881123
1560353411	1.308349848	2	13	2	4	1	2	3	1	1	2	8	1	1560353411	0.7086009979
1560353412	1.300153017	2	14	2	4	1	2	4	1	1	2	8	n/a	1560353412	n/a
1560353413	1.300019979	2	15	2	4	1	2	5	1	2	2	8	1	1560353414	0.7830569744
1560353415	1.291698933	2	16	2	4	1	2	6	2	2	2	7	1	1560353415	0.6834490299
1560353416	1.299992085	2	17	2	4	1	2	7	1	1	2	7	1	1560353416	0.7003610134
1560353417	1.299933195	2	18	2	4	1	2	8	1	2	2	7	1	1560353418	0.925306797
1560353419	1.291790962	2	19	2	4	1	2	9	1	2	2	7	n/a	1560353419	n/a
1560353420	1.30005908	2	20	2	4	1	2	10	2	1	2	6	1	1560353420	0.7594499588
1560353421	1.299994946	2	21	2	4	1	2	11	1	1	2	6	1	1560353422	0.7255141735
1560353422	1.299960136	2	22	2	4	1	2	12	2	2	2	6	1	1560353423	0.7502858639
1560353424	1.300008059	2	23	2	4	1	2	13	1	2	2	7	0	1560353424	0.7252628803
1560353425	1.291755199	2	24	2	4	1	2	14	1	1	2	7	1	1560353425	0.7666528225
1560353426	1.299998999	2	25	2	4	1	2	15	1	2	2	7	1	1560353427	0.7928071022
1560353428	1.299992085	2	26	2	4	1	2	16	1	1	2	6	1	1560353428	0.808382988
1560353429	1.29994607	2	27	2	4	1	2	17	1	1	2	6	1	1560353429	0.9584829807
1560353430	1.300143957	2	28	2	4	1	2	18	1	1	2	6	n/a	1560353431	n/a
1560353432	1.299991131	2	29	2	4	1	2	19	1	2	2	6	n/a	1560353432	n/a
1560353433	1.291664839	2	30	2	4	1	2	20	2	1	2	6	n/a	1560353433	n/a
1560353434	1.300005913	2	31	2	4	1	2	21	1	2	2	6	1	1560353435	0.850258112
1560353436	1.3000319	2	32	2	4	1	2	22	1	2	2	7	0	1560353436	0.7502601147
1560353437	1.300027132	2	33	2	4	1	2	23	1	2	2	7	1	1560353437	0.8000998497
1560353438	1.30001688	2	34	2	4	1	2	24	2	1	2	7	n/a	1560353438	n/a
1560353439	1.300020933	2	35	2	4	1	2	25	1	2	2	7	1	1560353440	0.8667340279
1560353441	1.299964905	2	36	2	4	1	2	26	2	1	2	7	0	1560353441	0.9502701759
1560353442	1.299970865	2	37	2	4	1	2	27	1	2	2	8	1	1560353442	0.8501300812
1560353443	1.30005908	2	38	2	4	1	2	28	2	2	2	8	n/a	1560353444	n/a
1560353445	1.300016165	2	39	2	4	1	2	29	2	1	2	8	n/a	1560353445	n/a
1560353446	1.30005312	2	40	2	4	1	2	30	2	1	2	9	0	1560353446	0.3167738914
1560353447	1.291630983	2	41	2	4	1	2	31	1	2	2	9	1	1560353448	0.8334228992
1560353449	1.291668892	2	42	2	4	1	2	32	1	1	2	9	n/a	1560353449	n/a
1560353450	1.291265965	2	43	2	4	9	3	1	3	3	2	9	n/a	n/a	n/a
1560353451	1.291622162	2	44	2	4	9	3	2	3	3	2	9	n/a	n/a	n/a
1560353453	1.291599989	2	45	2	4	9	3	3	3	3	2	9	n/a	n/a	n/a
1560353454	1.291712999	2	46	2	4	9	3	4	3	3	2	9	n/a	n/a	n/a
1560353455	1.291656971	2	47	2	4	9	3	5	3	3	2	9	n/a	n/a	n/a
1560353456	1.291701078	2	48	2	4	9	3	6	3	3	2	9	n/a	n/a	n/a
1560353458	1.291622877	2	49	2	4	9	3	7	3	3	2	9	n/a	n/a	n/a
1560353459	1.291670084	2	50	2	4	9	3	8	3	3	2	9	n/a	n/a	n/a
1560353460	1.291739941	2	51	2	4	9	3	9	3	3	2	9	n/a	n/a	n/a
1560353462	1.291650057	2	52	2	4	9	3	10	3	3	2	9	n/a	n/a	n/a
1560353463	1.300170898	2	53	2	4	3	4	1	2	2	2	9	0	1560353463	0.9586968422
1560353464	1.308422804	2	54	2	4	3	4	2	2	2	2	10	1	1560353465	0.7250409126
1560353466	1.299978018	2	55	2	4	3	4	3	2	2	2	10	1	1560353466	0.5833859444
1560353467	1.3000741	2	56	2	4	3	4	4	1	1	2	9	1	1560353467	0.7167489529
1560353468	1.299973965	2	57	2	4	3	4	5	2	1	2	9	1	1560353469	0.7000770569
1560353469	1.300008059	2	58	2	4	3	4	6	1	1	2	9	1	1560353470	0.7084829807
1560353471	1.299997091	2	59	2	4	3	4	7	1	1	2	8	1	1560353471	0.6500430107
1560353472	1.300058126	2	60	2	4	3	4	8	1	2	2	8	1	1560353472	0.7667798996
1560353473	1.300095081	2	61	2	4	3	4	9	1	2	2	8	1	1560353474	0.6167778969
1560353475	1.300018072	2	62	2	4	3	4	10	1	1	2	7	1	1560353475	0.5917220116
1560353476	1.3000319	2	63	2	4	3	4	11	2	2	2	7	1	1560353476	0.6750600338
1560353477	1.29995203	2	64	2	4	3	4	12	2	2	2	7	1	1560353478	0.8500578403
1560353479	1.299968004	2	65	2	4	3	4	13	1	2	2	6	1	1560353479	0.7918410301
1560353480	1.300033092	2	66	2	4	3	4	14	1	1	2	7	0	1560353480	0.908395052
1560353481	1.30001688	2	67	2	4	3	4	15	1	2	2	7	1	1560353482	0.658452034
1560353483	1.300067902	2	68	2	4	3	4	16	1	1	2	7	1	1560353483	0.8002021313
1560353484	1.300136089	2	69	2	4	3	4	17	2	1	2	6	1	1560353484	0.7001810074
1560353485	1.300116062	2	70	2	4	3	4	18	2	1	2	7	0	1560353486	0.7251570225
1560353486	1.291684866	2	71	2	4	9	5	1	3	3	2	7	n/a	n/a	n/a
1560353488	1.291612864	2	72	2	4	9	5	2	3	3	2	7	n/a	n/a	n/a
1560353489	1.291636944	2	73	2	4	9	5	3	3	3	2	7	n/a	n/a	n/a
1560353490	1.291692972	2	74	2	4	9	5	4	3	3	2	7	n/a	n/a	n/a
1560353492	1.291762114	2	75	2	4	9	5	5	3	3	2	7	n/a	n/a	n/a
1560353493	1.291692019	2	76	2	4	9	5	6	3	3	2	7	n/a	n/a	n/a
1560353494	1.291696072	2	77	2	4	9	5	7	3	3	2	7	n/a	n/a	n/a
1560353496	1.291573048	2	78	2	4	9	5	8	3	3	2	7	n/a	n/a	n/a
1560353497	1.291733027	2	79	2	4	9	5	9	3	3	2	7	n/a	n/a	n/a
1560353498	1.291648865	2	80	2	4	9	5	10	3	3	2	7	n/a	n/a	n/a
1560353500	1.300041914	2	81	2	4	5	6	1	2	2	2	8	0	1560353500	0.7334709167
1560353501	1.291696072	2	82	2	4	5	6	2	1	2	2	8	1	1560353501	0.70008111
1560353502	1.299998045	2	83	2	4	5	6	3	1	1	2	9	0	1560353502	0.550306797
1560353503	1.299973011	2	84	2	4	5	6	4	2	1	2	9	1	1560353504	0.5585041046
1560353505	1.300005198	2	85	2	4	5	6	5	1	2	2	9	1	1560353505	0.6168169975
1560353506	1.299991131	2	86	2	4	5	6	6	2	2	2	8	1	1560353506	0.7667369843
1560353507	1.300034046	2	87	2	4	5	6	7	1	1	2	8	1	1560353508	0.7833480835
1560353509	1.300041914	2	88	2	4	5	6	8	1	1	2	8	1	1560353509	0.6583790779
1560353510	1.299987078	2	89	2	4	5	6	9	1	1	2	9	0	1560353510	0.6667039394
1560353511	1.299993992	2	90	2	4	5	6	10	2	1	2	9	1	1560353512	0.6668100357
1560353513	1.299998045	2	91	2	4	5	6	11	1	1	2	9	1	1560353513	0.691701889
1560353514	1.300027847	2	92	2	4	5	6	12	1	1	2	8	1	1560353514	0.6166870594
1560353515	1.300004959	2	93	2	4	5	6	13	1	2	2	8	1	1560353516	0.8166980743
1560353517	1.299980164	2	94	2	4	5	6	14	1	2	2	8	1	1560353517	0.9084160328
1560353518	1.299992085	2	95	2	4	5	6	15	1	1	2	7	1	1560353518	0.6918239594
1560353519	1.300017834	2	96	2	4	5	6	16	1	2	2	8	0	1560353519	0.7003509998
1560353520	1.300058842	2	97	2	4	5	6	17	2	2	2	8	1	1560353521	0.7668018341
1560353522	1.291770935	2	98	2	4	5	6	18	1	1	2	8	1	1560353522	0.7583811283
1560353523	1.300058842	2	99	2	4	5	6	19	2	1	2	7	1	1560353523	0.6667981148
1560353524	1.300000906	2	100	2	4	5	6	20	1	2	2	7	1	1560353525	0.8667600155
1560353526	1.300043106	2	101	2	4	5	6	21	1	2	2	7	1	1560353526	0.7833809853
1560353527	1.30005002	2	102	2	4	5	6	22	2	2	2	8	0	1560353527	0.6001141071
1560353528	1.300028086	2	103	2	4	5	6	23	1	2	2	8	1	1560353529	0.4918348789
1560353530	1.299999952	2	104	2	4	5	6	24	1	2	2	9	0	1560353530	0.7001779079
1560353531	1.300097942	2	105	2	4	5	6	25	1	1	2	9	1	1560353531	0.858440876
1560353532	1.299996853	2	106	2	4	5	6	26	1	1	2	9	1	1560353533	0.608492136
1560353534	1.300004005	2	107	2	4	5	6	27	2	2	2	8	1	1560353534	0.8333699703
1560353535	1.299999952	2	108	2	4	5	6	28	2	1	2	8	0	1560353535	0.9334821701
1560353536	1.300036907	2	109	2	4	5	6	29	2	1	2	9	1	1560353536	0.8418660164
1560353537	1.300093174	2	110	2	4	5	6	30	2	2	2	9	1	1560353538	0.8250579834
1560353539	1.300003052	2	111	2	4	5	6	31	2	1	2	8	1	1560353539	0.9083981514
1560353540	1.299998045	2	112	2	4	5	6	32	1	2	2	8	1	1560353540	0.8418610096
1560353541	1.291723967	2	113	2	4	9	7	1	3	3	2	8	n/a	n/a	n/a
1560353543	1.291784048	2	114	2	4	9	7	2	3	3	2	8	n/a	n/a	n/a
1560353544	1.291640043	2	115	2	4	9	7	3	3	3	2	8	n/a	n/a	n/a
1560353545	1.291666031	2	116	2	4	9	7	4	3	3	2	8	n/a	n/a	n/a
1560353547	1.29166913	2	117	2	4	9	7	5	3	3	2	8	n/a	n/a	n/a
1560353548	1.291669846	2	118	2	4	9	7	6	3	3	2	8	n/a	n/a	n/a
1560353549	1.291653872	2	119	2	4	9	7	7	3	3	2	8	n/a	n/a	n/a
1560353550	1.291651964	2	120	2	4	9	7	8	3	3	2	8	n/a	n/a	n/a
1560353552	1.291661024	2	121	2	4	9	7	9	3	3	2	8	n/a	n/a	n/a
1560353553	1.291666985	2	122	2	4	9	7	10	3	3	2	8	n/a	n/a	n/a
1560353554	1.300067186	2	123	2	4	7	8	1	2	1	2	8	n/a	1560353555	n/a
1560353556	1.299750805	2	124	2	4	7	8	2	2	1	2	8	1	1560353556	0.9507181644
1560353557	1.299947023	2	125	2	4	7	8	3	1	1	2	7	1	1560353557	0.9001269341
1560353558	1.299998999	2	126	2	4	7	8	4	2	2	2	7	1	1560353559	0.6750121117
1560353560	1.300000906	2	127	2	4	7	8	5	2	1	2	7	1	1560353560	0.6417648792
1560353561	1.299966097	2	128	2	4	7	8	6	2	2	2	8	0	1560353561	0.6083278656
1560353562	1.299939871	2	129	2	4	7	8	7	1	2	2	8	1	1560353563	0.6084430218
1560353564	1.2999928	2	130	2	4	7	8	8	1	1	2	8	1	1560353564	0.8750729561
1560353565	1.300030947	2	131	2	4	7	8	9	1	1	2	7	1	1560353565	0.7251560688
1560353566	1.300082207	2	132	2	4	7	8	10	1	2	2	7	1	1560353566	0.7334148884
1560353567	1.300078154	2	133	2	4	7	8	11	2	1	2	8	0	1560353568	0.8834857941
1560353569	1.299993992	2	134	2	4	7	8	12	2	1	2	8	n/a	1560353569	n/a
1560353570	1.299993038	2	135	2	4	7	8	13	2	1	2	8	1	1560353570	0.9001169205
1560353571	1.299990892	2	136	2	4	7	8	14	2	1	2	8	n/a	1560353572	n/a
1560353573	1.300043106	2	137	2	4	7	8	15	1	1	2	8	1	1560353573	0.9417130947
1560353574	1.300000906	2	138	2	4	7	8	16	2	2	2	7	1	1560353574	0.80012393
1560353575	1.299999952	2	139	2	4	7	8	17	1	2	2	7	1	1560353576	0.8001029491
1560353577	1.299999952	2	140	2	4	7	8	18	1	2	2	7	n/a	1560353577	n/a
1560353578	1.291692019	2	141	2	4	9	9	1	3	3	2	7	n/a	n/a	n/a
1560353579	1.291765928	2	142	2	4	9	9	2	3	3	2	7	n/a	n/a	n/a
1560353581	1.29175806	2	143	2	4	9	9	3	3	3	2	7	n/a	n/a	n/a
1560353582	1.291671991	2	144	2	4	9	9	4	3	3	2	7	n/a	n/a	n/a
1560353583	1.291722059	2	145	2	4	9	9	5	3	3	2	7	n/a	n/a	n/a
1560353584	1.291624069	2	146	2	4	9	9	6	3	3	2	7	n/a	n/a	n/a
1560353586	1.29176116	2	147	2	4	9	9	7	3	3	2	7	n/a	n/a	n/a
1560353587	1.291694164	2	148	2	4	9	9	8	3	3	2	7	n/a	n/a	n/a
1560353588	1.291667223	2	149	2	4	9	9	9	3	3	2	7	n/a	n/a	n/a
1560353590	1.291665792	2	150	2	4	9	9	10	3	3	2	7	n/a	n/a	n/a
