onset	duration	run_number	trial_number	att_task	fix_direction	bar_direction	bar_period	bar_step	fix_noise_ori	stim_noise_ori	fix_stair_val	stim_stair_val	response_val	probe_time	reaction_time
1560843016	1.291084051	1	1	1	4	9	1	1	3	3	9	9	n/a	n/a	n/a
1560843017	1.291651964	1	2	1	4	9	1	2	3	3	9	9	n/a	n/a	n/a
1560843019	1.291680813	1	3	1	4	9	1	3	3	3	9	9	n/a	n/a	n/a
1560843020	1.291680098	1	4	1	4	9	1	4	3	3	9	9	n/a	n/a	n/a
1560843021	1.291583061	1	5	1	4	9	1	5	3	3	9	9	n/a	n/a	n/a
1560843023	1.291723967	1	6	1	4	9	1	6	3	3	9	9	n/a	n/a	n/a
1560843024	1.291664839	1	7	1	4	9	1	7	3	3	9	9	n/a	n/a	n/a
1560843025	1.291736126	1	8	1	4	9	1	8	3	3	9	9	n/a	n/a	n/a
1560843026	1.291630983	1	9	1	4	9	1	9	3	3	9	9	n/a	n/a	n/a
1560843028	1.291597128	1	10	1	4	9	1	10	3	3	9	9	n/a	n/a	n/a
1560843029	1.315548897	1	11	1	4	1	2	1	2	2	9	9	1	1560843029	0.5420811176
1560843030	1.300029039	1	12	1	4	1	2	2	2	2	9	9	1	1560843031	0.691849947
1560843032	1.291652918	1	13	1	4	1	2	3	2	2	8	9	1	1560843032	0.6585450172
1560843033	1.291644096	1	14	1	4	1	2	4	1	1	8	9	1	1560843033	0.8084180355
1560843034	1.291756868	1	15	1	4	1	2	5	2	1	8	9	1	1560843035	0.7331080437
1560843036	1.291646957	1	16	1	4	1	2	6	2	2	7	9	1	1560843036	0.7675850391
1560843037	1.299951792	1	17	1	4	1	2	7	2	2	7	9	1	1560843037	0.7170708179
1560843038	1.299944162	1	18	1	4	1	2	8	2	1	7	9	1	1560843039	0.750109911
1560843039	1.291636944	1	19	1	4	1	2	9	2	1	6	9	1	1560843040	0.9001030922
1560843041	1.29996109	1	20	1	4	1	2	10	1	1	6	9	1	1560843041	0.7418589592
1560843042	1.291636944	1	21	1	4	1	2	11	1	2	6	9	1	1560843042	0.783575058
1560843043	1.29994297	1	22	1	4	1	2	12	1	1	5	9	1	1560843044	0.7668550014
1560843045	1.300011873	1	23	1	4	1	2	13	1	1	5	9	1	1560843045	0.8343188763
1560843046	1.29172492	1	24	1	4	1	2	14	2	1	5	9	1	1560843046	0.725137949
1560843047	1.299957991	1	25	1	4	1	2	15	2	1	6	9	0	1560843048	0.8585929871
1560843049	1.291667938	1	26	1	4	1	2	16	1	1	7	9	0	1560843049	0.850372076
1560843050	1.291666031	1	27	1	4	1	2	17	2	1	7	9	1	1560843050	0.7583611012
1560843051	1.291671038	1	28	1	4	1	2	18	2	2	7	9	1	1560843052	0.6918931007
1560843053	1.299974203	1	29	1	4	1	2	19	1	1	6	9	1	1560843053	0.7750029564
1560843054	1.291650057	1	30	1	4	1	2	20	1	2	6	9	1	1560843054	0.6750719547
1560843055	1.291672945	1	31	1	4	1	2	21	2	2	6	9	1	1560843055	0.6333649158
1560843056	1.291690111	1	32	1	4	1	2	22	1	2	5	9	1	1560843057	0.650001049
1560843058	1.299971819	1	33	1	4	1	2	23	1	1	6	9	0	1560843058	0.8501179218
1560843059	1.291810036	1	34	1	4	1	2	24	2	2	6	9	1	1560843059	0.7334940434
1560843060	1.291667938	1	35	1	4	1	2	25	2	2	6	9	1	1560843061	0.7501111031
1560843062	1.299987078	1	36	1	4	1	2	26	2	2	6	9	1	1560843062	0.950053215
1560843063	1.29996109	1	37	1	4	1	2	27	1	1	5	9	1	1560843063	0.8584811687
1560843064	1.291589022	1	38	1	4	1	2	28	1	2	5	9	1	1560843065	0.8251039982
1560843066	1.29175806	1	39	1	4	1	2	29	2	2	4	9	1	1560843066	0.800121069
1560843067	1.308396101	1	40	1	4	1	2	30	2	2	5	9	0	1560843067	0.858438015
1560843068	1.291604042	1	41	1	4	1	2	31	2	2	5	9	1	1560843069	0.7833478451
1560843069	1.300090075	1	42	1	4	1	2	32	2	2	6	9	0	1560843070	0.7751049995
1560843071	1.291360855	1	43	1	4	9	3	1	3	3	6	9	n/a	n/a	n/a
1560843072	1.291655064	1	44	1	4	9	3	2	3	3	6	9	n/a	n/a	n/a
1560843073	1.291662931	1	45	1	4	9	3	3	3	3	6	9	n/a	n/a	n/a
1560843075	1.291715145	1	46	1	4	9	3	4	3	3	6	9	n/a	n/a	n/a
1560843076	1.291652918	1	47	1	4	9	3	5	3	3	6	9	n/a	n/a	n/a
1560843077	1.291673899	1	48	1	4	9	3	6	3	3	6	9	n/a	n/a	n/a
1560843079	1.291697979	1	49	1	4	9	3	7	3	3	6	9	n/a	n/a	n/a
1560843080	1.291653872	1	50	1	4	9	3	8	3	3	6	9	n/a	n/a	n/a
1560843081	1.291653156	1	51	1	4	9	3	9	3	3	6	9	n/a	n/a	n/a
1560843082	1.291670084	1	52	1	4	9	3	10	3	3	6	9	n/a	n/a	n/a
1560843084	1.291446924	1	53	1	4	3	4	1	1	1	6	9	1	1560843084	0.7920050621
1560843085	1.300015926	1	54	1	4	3	4	2	2	2	6	9	1	1560843085	0.6835341454
1560843086	1.291656971	1	55	1	4	3	4	3	2	1	5	9	1	1560843087	0.8333530426
1560843088	1.30002594	1	56	1	4	3	4	4	1	1	5	9	n/a	1560843088	n/a
1560843089	1.291685104	1	57	1	4	3	4	5	2	1	5	9	1	1560843089	0.8167040348
1560843090	1.291647911	1	58	1	4	3	4	6	1	1	5	9	1	1560843091	0.7334480286
1560843092	1.291657925	1	59	1	4	3	4	7	2	2	4	9	1	1560843092	0.7667319775
1560843093	1.300056934	1	60	1	4	3	4	8	2	1	4	9	1	1560843093	0.875054121
1560843094	1.291784048	1	61	1	4	3	4	9	1	1	5	9	0	1560843095	0.6918759346
1560843096	1.291661978	1	62	1	4	3	4	10	2	2	6	9	0	1560843096	0.7917909622
1560843097	1.291666031	1	63	1	4	3	4	11	1	2	6	9	1	1560843097	0.6917648315
1560843098	1.300058842	1	64	1	4	3	4	12	2	2	6	9	1	1560843098	0.7501738071
1560843099	1.299968958	1	65	1	4	3	4	13	2	1	5	9	1	1560843100	0.7584409714
1560843101	1.291714191	1	66	1	4	3	4	14	1	1	5	9	n/a	1560843101	n/a
1560843102	1.299948931	1	67	1	4	3	4	15	1	1	5	9	n/a	1560843102	n/a
1560843103	1.300079823	1	68	1	4	3	4	16	1	1	5	9	1	1560843104	0.8750779629
1560843105	1.29167819	1	69	1	4	3	4	17	2	2	5	9	1	1560843105	0.7833631039
1560843106	1.291702986	1	70	1	4	3	4	18	1	2	5	9	n/a	1560843106	n/a
1560843107	1.29169488	1	71	1	4	9	5	1	3	3	5	9	n/a	n/a	n/a
1560843109	1.291606903	1	72	1	4	9	5	2	3	3	5	9	n/a	n/a	n/a
1560843110	1.291703939	1	73	1	4	9	5	3	3	3	5	9	n/a	n/a	n/a
1560843111	1.291643858	1	74	1	4	9	5	4	3	3	5	9	n/a	n/a	n/a
1560843112	1.291661978	1	75	1	4	9	5	5	3	3	5	9	n/a	n/a	n/a
1560843114	1.291688919	1	76	1	4	9	5	6	3	3	5	9	n/a	n/a	n/a
1560843115	1.291618109	1	77	1	4	9	5	7	3	3	5	9	n/a	n/a	n/a
1560843116	1.291779041	1	78	1	4	9	5	8	3	3	5	9	n/a	n/a	n/a
1560843118	1.291664839	1	79	1	4	9	5	9	3	3	5	9	n/a	n/a	n/a
1560843119	1.291707993	1	80	1	4	9	5	10	3	3	5	9	n/a	n/a	n/a
1560843120	1.300028086	1	81	1	4	5	6	1	2	2	6	9	0	1560843121	0.5003449917
1560843122	1.300045967	1	82	1	4	5	6	2	1	1	7	9	0	1560843122	0.4668498039
1560843123	1.299956083	1	83	1	4	5	6	3	2	2	7	9	1	1560843123	0.433480978
1560843124	1.308290958	1	84	1	4	5	6	4	2	1	7	9	1	1560843125	0.7834310532
1560843126	1.308336973	1	85	1	4	5	6	5	2	2	6	9	1	1560843126	0.8085238934
1560843127	1.30004406	1	86	1	4	5	6	6	2	1	6	9	1	1560843127	0.8335149288
1560843128	1.291628122	1	87	1	4	5	6	7	2	2	6	9	1	1560843128	0.7666990757
1560843129	1.308272123	1	88	1	4	5	6	8	2	1	5	9	1	1560843130	0.7585570812
1560843131	1.30002594	1	89	1	4	5	6	9	1	1	5	9	1	1560843131	0.6668360233
1560843132	1.3000319	1	90	1	4	5	6	10	2	1	5	9	1	1560843132	0.8501200676
1560843133	1.30005908	1	91	1	4	5	6	11	2	1	5	9	n/a	1560843134	n/a
1560843135	1.299998045	1	92	1	4	5	6	12	1	1	4	9	1	1560843135	0.758441925
1560843136	1.30002594	1	93	1	4	5	6	13	1	2	4	9	1	1560843136	0.883441925
1560843137	1.300009012	1	94	1	4	5	6	14	2	2	4	9	1	1560843138	0.7085111141
1560843139	1.291703939	1	95	1	4	5	6	15	1	2	3	9	1	1560843139	0.7166831493
1560843140	1.300021887	1	96	1	4	5	6	16	1	1	3	9	1	1560843140	0.7917439938
1560843141	1.299975157	1	97	1	4	5	6	17	1	2	3	9	1	1560843142	0.616702795
1560843143	1.300000906	1	98	1	4	5	6	18	2	1	2	9	1	1560843143	0.5918169022
1560843144	1.291688919	1	99	1	4	5	6	19	2	1	2	9	n/a	1560843144	n/a
1560843145	1.300079107	1	100	1	4	5	6	20	1	2	2	9	1	1560843145	0.8501029015
1560843146	1.308333158	1	101	1	4	5	6	21	2	1	3	9	0	1560843147	0.8169779778
1560843148	1.291710854	1	102	1	4	5	6	22	1	1	3	9	1	1560843148	0.7667028904
1560843149	1.300003767	1	103	1	4	5	6	23	2	2	3	9	1	1560843149	0.7167880535
1560843150	1.299941063	1	104	1	4	5	6	24	2	1	2	9	1	1560843151	0.8417999744
1560843152	1.299987078	1	105	1	4	5	6	25	1	2	2	9	1	1560843152	0.8750059605
1560843153	1.299890995	1	106	1	4	5	6	26	1	2	2	9	1	1560843153	0.9418070316
1560843154	1.300096035	1	107	1	4	5	6	27	2	1	2	9	1	1560843155	0.7251079082
1560843156	1.299890041	1	108	1	4	5	6	28	1	1	2	9	1	1560843156	0.7917840481
1560843157	1.300071001	1	109	1	4	5	6	29	1	1	2	9	1	1560843157	0.8169329166
1560843158	1.300035	1	110	1	4	5	6	30	2	2	2	9	1	1560843159	0.6834659576
1560843160	1.300079823	1	111	1	4	5	6	31	2	2	3	9	0	1560843160	0.8834700584
1560843161	1.291737795	1	112	1	4	5	6	32	1	2	3	9	1	1560843161	0.9168310165
1560843162	1.291732073	1	113	1	4	9	7	1	3	3	3	9	n/a	n/a	n/a
1560843163	1.291670084	1	114	1	4	9	7	2	3	3	3	9	n/a	n/a	n/a
1560843165	1.291676998	1	115	1	4	9	7	3	3	3	3	9	n/a	n/a	n/a
1560843166	1.291627884	1	116	1	4	9	7	4	3	3	3	9	n/a	n/a	n/a
1560843167	1.291696072	1	117	1	4	9	7	5	3	3	3	9	n/a	n/a	n/a
1560843169	1.291600943	1	118	1	4	9	7	6	3	3	3	9	n/a	n/a	n/a
1560843170	1.291659117	1	119	1	4	9	7	7	3	3	3	9	n/a	n/a	n/a
1560843171	1.291674852	1	120	1	4	9	7	8	3	3	3	9	n/a	n/a	n/a
1560843173	1.291618109	1	121	1	4	9	7	9	3	3	3	9	n/a	n/a	n/a
1560843174	1.291672945	1	122	1	4	9	7	10	3	3	3	9	n/a	n/a	n/a
1560843175	1.300086021	1	123	1	4	7	8	1	2	1	3	9	1	1560843176	0.6670892239
1560843176	1.308356047	1	124	1	4	7	8	2	1	1	2	9	1	1560843177	0.6501300335
1560843178	1.30000186	1	125	1	4	7	8	3	2	1	3	9	0	1560843178	0.7168989182
1560843179	1.300029993	1	126	1	4	7	8	4	1	1	3	9	1	1560843179	0.6667730808
1560843180	1.300004005	1	127	1	4	7	8	5	1	1	3	9	1	1560843181	0.7584049702
1560843182	1.300095081	1	128	1	4	7	8	6	2	1	2	9	1	1560843182	0.8001489639
1560843183	1.30002594	1	129	1	4	7	8	7	1	2	2	9	1	1560843183	0.8084030151
1560843184	1.308377981	1	130	1	4	7	8	8	2	1	3	9	0	1560843185	0.6918261051
1560843186	1.299939871	1	131	1	4	7	8	9	2	1	3	9	1	1560843186	0.616656065
1560843187	1.300055981	1	132	1	4	7	8	10	1	2	4	9	0	1560843187	0.7836511135
1560843188	1.299968004	1	133	1	4	7	8	11	1	2	4	9	1	1560843189	0.8500728607
1560843190	1.300042152	1	134	1	4	7	8	12	1	2	4	9	1	1560843190	0.8751320839
1560843191	1.299999952	1	135	1	4	7	8	13	2	1	3	9	1	1560843191	0.6251869202
1560843192	1.308357954	1	136	1	4	7	8	14	2	1	4	9	0	1560843193	0.691742897
1560843193	1.29996419	1	137	1	4	7	8	15	2	1	4	9	1	1560843194	0.7584691048
1560843195	1.300030947	1	138	1	4	7	8	16	2	1	5	9	0	1560843195	0.6583681107
1560843196	1.300024033	1	139	1	4	7	8	17	2	1	5	9	1	1560843196	0.750150919
1560843197	1.299900055	1	140	1	4	7	8	18	1	1	5	9	1	1560843198	0.7501451969
1560843199	1.291697979	1	141	1	4	9	9	1	3	3	5	9	n/a	n/a	n/a
1560843200	1.291669846	1	142	1	4	9	9	2	3	3	5	9	n/a	n/a	n/a
1560843201	1.291669846	1	143	1	4	9	9	3	3	3	5	9	n/a	n/a	n/a
1560843203	1.291661024	1	144	1	4	9	9	4	3	3	5	9	n/a	n/a	n/a
1560843204	1.291652918	1	145	1	4	9	9	5	3	3	5	9	n/a	n/a	n/a
1560843205	1.291761875	1	146	1	4	9	9	6	3	3	5	9	n/a	n/a	n/a
1560843207	1.291670084	1	147	1	4	9	9	7	3	3	5	9	n/a	n/a	n/a
1560843208	1.291657925	1	148	1	4	9	9	8	3	3	5	9	n/a	n/a	n/a
1560843209	1.29166913	1	149	1	4	9	9	9	3	3	5	9	n/a	n/a	n/a
1560843210	1.291664839	1	150	1	4	9	9	10	3	3	5	9	n/a	n/a	n/a
