onset	duration	run_number	trial_number	att_task	fix_direction	bar_direction	bar_period	bar_step	fix_noise_ori	stim_noise_ori	fix_stair_val	stim_stair_val	response_val	probe_time	reaction_time
1560848826	1.291327953	2	1	2	4	9	1	1	3	3	2	9	n/a	n/a	n/a
1560848827	1.291763783	2	2	2	4	9	1	2	3	3	2	9	n/a	n/a	n/a
1560848829	1.291682959	2	3	2	4	9	1	3	3	3	2	9	n/a	n/a	n/a
1560848830	1.291636944	2	4	2	4	9	1	4	3	3	2	9	n/a	n/a	n/a
1560848831	1.291610956	2	5	2	4	9	1	5	3	3	2	9	n/a	n/a	n/a
1560848833	1.291745901	2	6	2	4	9	1	6	3	3	2	9	n/a	n/a	n/a
1560848834	1.291746855	2	7	2	4	9	1	7	3	3	2	9	n/a	n/a	n/a
1560848835	1.291707993	2	8	2	4	9	1	8	3	3	2	9	n/a	n/a	n/a
1560848837	1.291636944	2	9	2	4	9	1	9	3	3	2	9	n/a	n/a	n/a
1560848838	1.291768074	2	10	2	4	9	1	10	3	3	2	9	n/a	n/a	n/a
1560848839	1.307304859	2	11	2	4	1	2	1	1	2	2	10	0	1560848839	0.7336559296
1560848840	1.300088882	2	12	2	4	1	2	2	2	2	2	10	1	1560848841	0.6502130032
1560848842	1.2999928	2	13	2	4	1	2	3	2	2	2	10	1	1560848842	0.5833890438
1560848843	1.291682959	2	14	2	4	1	2	4	2	1	2	9	1	1560848843	0.5751540661
1560848844	1.299993038	2	15	2	4	1	2	5	1	2	2	9	1	1560848845	0.5163900852
1560848846	1.300092936	2	16	2	4	1	2	6	1	2	2	9	1	1560848846	0.5334560871
1560848847	1.29169488	2	17	2	4	1	2	7	1	2	2	8	1	1560848847	0.6260211468
1560848848	1.300026894	2	18	2	4	1	2	8	1	1	2	8	1	1560848849	0.616891861
1560848850	1.300019979	2	19	2	4	1	2	9	1	1	2	9	0	1560848850	0.5503900051
1560848851	1.300054073	2	20	2	4	1	2	10	2	1	2	9	1	1560848851	0.8586080074
1560848852	1.299977064	2	21	2	4	1	2	11	2	2	2	9	1	1560848853	0.8337919712
1560848854	1.299952984	2	22	2	4	1	2	12	2	2	2	8	1	1560848854	0.6418149471
1560848855	1.291693211	2	23	2	4	1	2	13	1	2	2	8	1	1560848855	0.7083661556
1560848856	1.299983978	2	24	2	4	1	2	14	2	1	2	8	1	1560848856	0.8094170094
1560848857	1.299972057	2	25	2	4	1	2	15	1	2	2	7	1	1560848858	0.7668149471
1560848859	1.300038099	2	26	2	4	1	2	16	2	1	2	7	1	1560848859	0.68364501
1560848860	1.29997015	2	27	2	4	1	2	17	2	1	2	7	1	1560848860	0.8751049042
1560848861	1.299958944	2	28	2	4	1	2	18	1	2	2	8	0	1560848862	0.7919988632
1560848863	1.299977064	2	29	2	4	1	2	19	1	1	2	8	1	1560848863	0.7001349926
1560848864	1.300082922	2	30	2	4	1	2	20	2	2	2	8	1	1560848864	0.8001778126
1560848865	1.30001688	2	31	2	4	1	2	21	1	2	2	7	1	1560848866	0.7251040936
1560848867	1.299975872	2	32	2	4	1	2	22	1	1	2	8	0	1560848867	0.7334139347
1560848868	1.300091982	2	33	2	4	1	2	23	1	1	2	8	1	1560848868	0.6668088436
1560848869	1.300132036	2	34	2	4	1	2	24	2	1	2	8	1	1560848870	0.6417760849
1560848871	1.299956083	2	35	2	4	1	2	25	2	1	2	7	1	1560848871	0.6167809963
1560848872	1.300115824	2	36	2	4	1	2	26	1	1	2	7	1	1560848872	0.7834608555
1560848873	1.299968004	2	37	2	4	1	2	27	1	1	2	7	1	1560848873	0.7251369953
1560848874	1.300076962	2	38	2	4	1	2	28	1	1	2	8	0	1560848875	0.7001490593
1560848876	1.299953938	2	39	2	4	1	2	29	1	2	2	8	1	1560848876	0.8167021275
1560848877	1.300024033	2	40	2	4	1	2	30	1	1	2	8	1	1560848877	0.5334348679
1560848878	1.299945116	2	41	2	4	1	2	31	1	1	2	7	1	1560848879	0.5918550491
1560848880	1.291854143	2	42	2	4	1	2	32	2	1	2	8	0	1560848880	0.5835471153
1560848881	1.291284084	2	43	2	4	9	3	1	3	3	2	8	n/a	n/a	n/a
1560848882	1.291593075	2	44	2	4	9	3	2	3	3	2	8	n/a	n/a	n/a
1560848884	1.291656017	2	45	2	4	9	3	3	3	3	2	8	n/a	n/a	n/a
1560848885	1.291692972	2	46	2	4	9	3	4	3	3	2	8	n/a	n/a	n/a
1560848886	1.291651964	2	47	2	4	9	3	5	3	3	2	8	n/a	n/a	n/a
1560848887	1.291795015	2	48	2	4	9	3	6	3	3	2	8	n/a	n/a	n/a
1560848889	1.291649818	2	49	2	4	9	3	7	3	3	2	8	n/a	n/a	n/a
1560848890	1.291662931	2	50	2	4	9	3	8	3	3	2	8	n/a	n/a	n/a
1560848891	1.291610956	2	51	2	4	9	3	9	3	3	2	8	n/a	n/a	n/a
1560848893	1.291742086	2	52	2	4	9	3	10	3	3	2	8	n/a	n/a	n/a
1560848894	1.29990983	2	53	2	4	3	4	1	2	2	2	8	1	1560848894	0.8336551189
1560848895	1.300003052	2	54	2	4	3	4	2	1	2	2	8	1	1560848896	0.6417660713
1560848897	1.300002098	2	55	2	4	3	4	3	1	1	2	7	1	1560848897	0.4166898727
1560848898	1.299973011	2	56	2	4	3	4	4	1	2	2	7	n/a	1560848898	n/a
1560848899	1.300057173	2	57	2	4	3	4	5	2	2	2	7	n/a	1560848900	n/a
1560848901	1.300002098	2	58	2	4	3	4	6	2	1	2	7	n/a	1560848901	n/a
1560848902	1.299960852	2	59	2	4	3	4	7	1	2	2	7	1	1560848902	0.5834438801
1560848903	1.300007105	2	60	2	4	3	4	8	1	2	2	8	0	1560848903	0.8584570885
1560848904	1.291632891	2	61	2	4	3	4	9	1	1	2	8	1	1560848905	0.725028038
1560848906	1.300107002	2	62	2	4	3	4	10	1	2	2	8	1	1560848906	0.5834360123
1560848907	1.299991131	2	63	2	4	3	4	11	1	1	2	7	1	1560848907	0.6250989437
1560848908	1.299996138	2	64	2	4	3	4	12	1	2	2	8	0	1560848909	0.7668700218
1560848910	1.300049067	2	65	2	4	3	4	13	1	2	2	8	1	1560848910	0.641849041
1560848911	1.300060034	2	66	2	4	3	4	14	1	1	2	8	1	1560848911	0.6500267982
1560848912	1.299994946	2	67	2	4	3	4	15	2	2	2	8	1	1560848913	0.9500191212
1560848914	1.299981117	2	68	2	4	3	4	16	1	2	2	7	n/a	1560848914	n/a
1560848915	1.300026894	2	69	2	4	3	4	17	1	1	2	7	n/a	1560848915	n/a
1560848916	1.299942017	2	70	2	4	3	4	18	1	2	2	7	n/a	1560848917	n/a
1560848918	1.291702032	2	71	2	4	9	5	1	3	3	2	7	n/a	n/a	n/a
1560848919	1.291687965	2	72	2	4	9	5	2	3	3	2	7	n/a	n/a	n/a
1560848920	1.291633844	2	73	2	4	9	5	3	3	3	2	7	n/a	n/a	n/a
1560848921	1.291770935	2	74	2	4	9	5	4	3	3	2	7	n/a	n/a	n/a
1560848923	1.291638851	2	75	2	4	9	5	5	3	3	2	7	n/a	n/a	n/a
1560848924	1.291662216	2	76	2	4	9	5	6	3	3	2	7	n/a	n/a	n/a
1560848925	1.29173398	2	77	2	4	9	5	7	3	3	2	7	n/a	n/a	n/a
1560848927	1.29176712	2	78	2	4	9	5	8	3	3	2	7	n/a	n/a	n/a
1560848928	1.291703939	2	79	2	4	9	5	9	3	3	2	7	n/a	n/a	n/a
1560848929	1.291568995	2	80	2	4	9	5	10	3	3	2	7	n/a	n/a	n/a
1560848931	1.30006814	2	81	2	4	5	6	1	2	2	2	8	0	1560848931	0.5754110813
1560848932	1.291610003	2	82	2	4	5	6	2	1	1	2	8	1	1560848932	0.5584709644
1560848933	1.299923897	2	83	2	4	5	6	3	1	2	2	9	0	1560848934	0.6253199577
1560848934	1.291661978	2	84	2	4	5	6	4	1	1	2	9	1	1560848935	0.5917711258
1560848936	1.291632891	2	85	2	4	5	6	5	1	2	2	9	1	1560848936	0.8583481312
1560848937	1.291659117	2	86	2	4	5	6	6	2	2	2	8	1	1560848937	0.6834630966
1560848938	1.300099134	2	87	2	4	5	6	7	1	2	2	9	0	1560848939	0.5418219566
1560848940	1.299979925	2	88	2	4	5	6	8	1	1	2	9	n/a	1560848940	n/a
1560848941	1.300093889	2	89	2	4	5	6	9	1	1	2	9	1	1560848941	0.8501150608
1560848942	1.299942017	2	90	2	4	5	6	10	2	2	2	9	1	1560848943	0.6833779812
1560848944	1.300012112	2	91	2	4	5	6	11	2	1	2	8	1	1560848944	0.5418179035
1560848945	1.299957991	2	92	2	4	5	6	12	2	1	2	8	n/a	1560848945	n/a
1560848946	1.300118923	2	93	2	4	5	6	13	2	2	2	8	1	1560848947	0.7167620659
1560848948	1.300029039	2	94	2	4	5	6	14	1	1	2	8	1	1560848948	0.7000930309
1560848949	1.300027132	2	95	2	4	5	6	15	2	1	2	7	1	1560848949	0.7167408466
1560848950	1.300107002	2	96	2	4	5	6	16	2	2	2	7	1	1560848950	0.6000421047
1560848951	1.300003052	2	97	2	4	5	6	17	2	2	2	7	1	1560848952	0.6417789459
1560848953	1.30004406	2	98	2	4	5	6	18	2	2	2	6	1	1560848953	0.6250810623
1560848954	1.300037146	2	99	2	4	5	6	19	2	2	2	7	0	1560848954	0.7833571434
1560848955	1.300084114	2	100	2	4	5	6	20	2	1	2	7	1	1560848956	0.8418591022
1560848957	1.300000906	2	101	2	4	5	6	21	1	1	2	7	n/a	1560848957	n/a
1560848958	1.299996853	2	102	2	4	5	6	22	1	1	2	7	n/a	1560848958	n/a
1560848959	1.300058842	2	103	2	4	5	6	23	1	2	2	7	1	1560848960	0.8167150021
1560848961	1.299982071	2	104	2	4	5	6	24	2	1	2	7	n/a	1560848961	n/a
1560848962	1.291653872	2	105	2	4	5	6	25	1	1	2	7	n/a	1560848962	n/a
1560848963	1.291649818	2	106	2	4	5	6	26	1	2	2	6	1	1560848964	0.8084719181
1560848965	1.291600943	2	107	2	4	5	6	27	2	1	2	7	0	1560848965	0.5920128822
1560848966	1.291785955	2	108	2	4	5	6	28	1	2	2	7	1	1560848966	0.7168271542
1560848967	1.299996138	2	109	2	4	5	6	29	2	2	2	7	1	1560848967	0.6167161465
1560848968	1.299998045	2	110	2	4	5	6	30	1	2	2	8	0	1560848969	0.658427
1560848970	1.300132036	2	111	2	4	5	6	31	1	1	2	8	n/a	1560848970	n/a
1560848971	1.29161191	2	112	2	4	5	6	32	2	2	2	8	1	1560848971	0.7750148773
1560848972	1.291747093	2	113	2	4	9	7	1	3	3	2	8	n/a	n/a	n/a
1560848974	1.291640997	2	114	2	4	9	7	2	3	3	2	8	n/a	n/a	n/a
1560848975	1.291690111	2	115	2	4	9	7	3	3	3	2	8	n/a	n/a	n/a
1560848976	1.291668892	2	116	2	4	9	7	4	3	3	2	8	n/a	n/a	n/a
1560848978	1.291586876	2	117	2	4	9	7	5	3	3	2	8	n/a	n/a	n/a
1560848979	1.291760206	2	118	2	4	9	7	6	3	3	2	8	n/a	n/a	n/a
1560848980	1.291666031	2	119	2	4	9	7	7	3	3	2	8	n/a	n/a	n/a
1560848981	1.291702986	2	120	2	4	9	7	8	3	3	2	8	n/a	n/a	n/a
1560848983	1.291636944	2	121	2	4	9	7	9	3	3	2	8	n/a	n/a	n/a
1560848984	1.291664124	2	122	2	4	9	7	10	3	3	2	8	n/a	n/a	n/a
1560848985	1.30005908	2	123	2	4	7	8	1	1	1	2	8	1	1560848986	0.7836208344
1560848987	1.300033092	2	124	2	4	7	8	2	2	2	2	7	1	1560848987	0.8833870888
1560848988	1.300065041	2	125	2	4	7	8	3	2	2	2	7	n/a	1560848988	n/a
1560848989	1.308303118	2	126	2	4	7	8	4	1	2	2	7	n/a	1560848990	n/a
1560848991	1.300112009	2	127	2	4	7	8	5	1	1	2	7	1	1560848991	0.8833730221
1560848992	1.300127983	2	128	2	4	7	8	6	2	1	2	7	n/a	1560848992	n/a
1560848993	1.299994946	2	129	2	4	7	8	7	2	1	2	7	1	1560848994	0.8584580421
1560848995	1.299936056	2	130	2	4	7	8	8	1	2	2	6	1	1560848995	0.8418939114
1560848996	1.30002284	2	131	2	4	7	8	9	2	1	2	6	1	1560848996	0.8584280014
1560848997	1.299925089	2	132	2	4	7	8	10	2	1	2	6	1	1560848997	0.8167169094
1560848998	1.300021172	2	133	2	4	7	8	11	2	1	2	5	1	1560848999	0.891685009
1560849000	1.300012112	2	134	2	4	7	8	12	2	2	2	5	n/a	1560849000	n/a
1560849001	1.299940109	2	135	2	4	7	8	13	1	1	2	5	n/a	1560849001	n/a
1560849002	1.300065041	2	136	2	4	7	8	14	1	2	2	5	n/a	1560849003	n/a
1560849004	1.300088167	2	137	2	4	7	8	15	1	2	2	5	1	1560849004	0.8250257969
1560849005	1.300001144	2	138	2	4	7	8	16	1	1	2	5	n/a	1560849005	n/a
1560849006	1.300023079	2	139	2	4	7	8	17	1	2	2	5	n/a	1560849007	n/a
1560849008	1.299994946	2	140	2	4	7	8	18	2	1	2	5	n/a	1560849008	n/a
1560849009	1.291739941	2	141	2	4	9	9	1	3	3	2	5	n/a	n/a	n/a
1560849010	1.291653872	2	142	2	4	9	9	2	3	3	2	5	n/a	n/a	n/a
1560849012	1.291659117	2	143	2	4	9	9	3	3	3	2	5	n/a	n/a	n/a
1560849013	1.291638851	2	144	2	4	9	9	4	3	3	2	5	n/a	n/a	n/a
1560849014	1.291670084	2	145	2	4	9	9	5	3	3	2	5	n/a	n/a	n/a
1560849015	1.291723013	2	146	2	4	9	9	6	3	3	2	5	n/a	n/a	n/a
1560849017	1.291693211	2	147	2	4	9	9	7	3	3	2	5	n/a	n/a	n/a
1560849018	1.291682959	2	148	2	4	9	9	8	3	3	2	5	n/a	n/a	n/a
1560849019	1.291687012	2	149	2	4	9	9	9	3	3	2	5	n/a	n/a	n/a
1560849021	1.291693926	2	150	2	4	9	9	10	3	3	2	5	n/a	n/a	n/a
