onset	duration	run_number	trial_number	att_task	fix_direction	bar_direction	bar_period	bar_step	fix_noise_ori	stim_noise_ori	fix_stair_val	stim_stair_val	response_val	probe_time	reaction_time
1561564318	1.291392088	8	1	2	3	9	1	1	3	3	7	13	n/a	n/a	n/a
1561564319	1.291711092	8	2	2	3	9	1	2	3	3	7	13	n/a	n/a	n/a
1561564321	1.291754007	8	3	2	3	9	1	3	3	3	7	13	n/a	n/a	n/a
1561564322	1.291673183	8	4	2	3	9	1	4	3	3	7	13	n/a	n/a	n/a
1561564323	1.291623116	8	5	2	3	9	1	5	3	3	7	13	n/a	n/a	n/a
1561564325	1.291649103	8	6	2	3	9	1	6	3	3	7	13	n/a	n/a	n/a
1561564326	1.291711092	8	7	2	3	9	1	7	3	3	7	13	n/a	n/a	n/a
1561564327	1.291659117	8	8	2	3	9	1	8	3	3	7	13	n/a	n/a	n/a
1561564329	1.291666031	8	9	2	3	9	1	9	3	3	7	13	n/a	n/a	n/a
1561564330	1.291722059	8	10	2	3	9	1	10	3	3	7	13	n/a	n/a	n/a
1561564331	1.299002886	8	11	2	3	1	2	1	1	2	7	13	n/a	1561564332	n/a
1561564333	1.291690111	8	12	2	3	1	2	2	2	2	7	14	0	1561564333	0.6502430439
1561564334	1.291636944	8	13	2	3	1	2	3	1	1	7	14	1	1561564334	0.5585169792
1561564335	1.299997091	8	14	2	3	1	2	4	1	1	7	14	1	1561564335	0.5750739574
1561564336	1.291669846	8	15	2	3	1	2	5	1	2	7	13	1	1561564337	0.6831221581
1561564338	1.300007105	8	16	2	3	1	2	6	2	1	7	13	1	1561564338	0.5752398968
1561564339	1.291713953	8	17	2	3	1	2	7	2	2	7	13	1	1561564339	0.5168879032
1561564340	1.291749954	8	18	2	3	1	2	8	2	2	7	14	0	1561564341	0.5676989555
1561564342	1.29163909	8	19	2	3	1	2	9	2	2	7	14	1	1561564342	0.5501658916
1561564343	1.300002098	8	20	2	3	1	2	10	1	1	7	14	1	1561564343	0.5669958591
1561564344	1.291666031	8	21	2	3	1	2	11	1	2	7	13	1	1561564345	0.683619976
1561564346	1.29172492	8	22	2	3	1	2	12	1	1	7	13	1	1561564346	0.6253218651
1561564347	1.291661024	8	23	2	3	1	2	13	2	1	7	13	1	1561564347	0.5588810444
1561564348	1.291665077	8	24	2	3	1	2	14	2	2	7	12	1	1561564348	0.7427968979
1561564349	1.291665077	8	25	2	3	1	2	15	2	1	7	12	1	1561564350	0.5584611893
1561564351	1.300035	8	26	2	3	1	2	16	2	1	7	13	0	1561564351	0.5168800354
1561564352	1.291739941	8	27	2	3	1	2	17	2	2	7	13	1	1561564352	0.6251149178
1561564353	1.291657925	8	28	2	3	1	2	18	1	2	7	14	0	1561564354	0.6084058285
1561564355	1.291289091	8	29	2	3	9	3	1	3	3	7	14	n/a	n/a	n/a
1561564356	1.291662931	8	30	2	3	9	3	2	3	3	7	14	n/a	n/a	n/a
1561564357	1.29163909	8	31	2	3	9	3	3	3	3	7	14	n/a	n/a	n/a
1561564359	1.291666031	8	32	2	3	9	3	4	3	3	7	14	n/a	n/a	n/a
1561564360	1.291641951	8	33	2	3	9	3	5	3	3	7	14	n/a	n/a	n/a
1561564361	1.291670084	8	34	2	3	9	3	6	3	3	7	14	n/a	n/a	n/a
1561564362	1.291708946	8	35	2	3	9	3	7	3	3	7	14	n/a	n/a	n/a
1561564364	1.291698217	8	36	2	3	9	3	8	3	3	7	14	n/a	n/a	n/a
1561564365	1.291766882	8	37	2	3	9	3	9	3	3	7	14	n/a	n/a	n/a
1561564366	1.291667938	8	38	2	3	9	3	10	3	3	7	14	n/a	n/a	n/a
1561564368	1.300127029	8	39	2	3	5	4	1	2	2	7	15	0	1561564368	0.5584380627
1561564369	1.291672945	8	40	2	3	5	4	2	1	2	7	15	1	1561564369	0.6834979057
1561564370	1.300055981	8	41	2	3	5	4	3	2	1	7	15	1	1561564371	0.5334069729
1561564372	1.299962044	8	42	2	3	5	4	4	1	2	7	14	1	1561564372	0.6085000038
1561564373	1.291677952	8	43	2	3	5	4	5	1	2	7	14	1	1561564373	0.5251381397
1561564374	1.291666985	8	44	2	3	5	4	6	1	2	7	14	1	1561564375	0.5501401424
1561564375	1.300002098	8	45	2	3	5	4	7	2	2	7	15	0	1561564376	0.550385952
1561564377	1.300065994	8	46	2	3	5	4	8	2	2	7	15	1	1561564377	0.5167140961
1561564378	1.291726112	8	47	2	3	5	4	9	1	2	7	15	0	1561564378	0.6251289845
1561564379	1.300009966	8	48	2	3	5	4	10	1	2	7	15	1	1561564380	0.4334068298
1561564381	1.299991846	8	49	2	3	5	4	11	1	1	7	15	0	1561564381	0.4501781464
1561564382	1.29165411	8	50	2	3	5	4	12	2	2	7	15	1	1561564382	0.4250991344
1561564383	1.300079107	8	51	2	3	5	4	13	1	1	7	15	1	1561564384	0.4833581448
1561564385	1.29162693	8	52	2	3	5	4	14	2	2	7	14	1	1561564385	0.550052166
1561564386	1.291625023	8	53	2	3	5	4	15	2	2	7	15	0	1561564386	0.5251448154
1561564387	1.291661024	8	54	2	3	5	4	16	1	2	7	15	1	1561564388	0.5334699154
1561564389	1.291650057	8	55	2	3	5	4	17	2	1	7	15	1	1561564389	0.6168489456
1561564390	1.291702986	8	56	2	3	5	4	18	2	1	7	14	1	1561564390	0.6416809559
1561564391	1.29172802	8	57	2	3	9	5	1	3	3	7	14	n/a	n/a	n/a
1561564392	1.291657925	8	58	2	3	9	5	2	3	3	7	14	n/a	n/a	n/a
1561564394	1.291769028	8	59	2	3	9	5	3	3	3	7	14	n/a	n/a	n/a
1561564395	1.291627884	8	60	2	3	9	5	4	3	3	7	14	n/a	n/a	n/a
1561564396	1.29161787	8	61	2	3	9	5	5	3	3	7	14	n/a	n/a	n/a
1561564398	1.291665077	8	62	2	3	9	5	6	3	3	7	14	n/a	n/a	n/a
1561564399	1.29166913	8	63	2	3	9	5	7	3	3	7	14	n/a	n/a	n/a
1561564400	1.29166913	8	64	2	3	9	5	8	3	3	7	14	n/a	n/a	n/a
1561564402	1.291646957	8	65	2	3	9	5	9	3	3	7	14	n/a	n/a	n/a
1561564403	1.29173398	8	66	2	3	9	5	10	3	3	7	14	n/a	n/a	n/a
1561564404	1.29173398	8	67	2	3	1	6	1	2	1	7	14	1	1561564404	0.642056942
1561564405	1.291670084	8	68	2	3	1	6	2	2	2	7	14	1	1561564406	0.5833790302
1561564407	1.291675806	8	69	2	3	1	6	3	2	2	7	13	1	1561564407	0.5251588821
1561564408	1.291650057	8	70	2	3	1	6	4	1	1	7	14	0	1561564408	0.5002188683
1561564409	1.291698933	8	71	2	3	1	6	5	2	1	7	14	1	1561564410	0.4750440121
1561564411	1.291732073	8	72	2	3	1	6	6	2	2	7	14	1	1561564411	0.5084750652
1561564412	1.29999423	8	73	2	3	1	6	7	2	1	7	13	1	1561564412	0.6334671974
1561564413	1.291667938	8	74	2	3	1	6	8	1	1	7	13	1	1561564414	0.6084139347
1561564415	1.291625023	8	75	2	3	1	6	9	2	1	7	13	1	1561564415	0.5917999744
1561564416	1.300038099	8	76	2	3	1	6	10	2	2	7	12	1	1561564416	0.5667350292
1561564417	1.291667938	8	77	2	3	1	6	11	2	1	7	12	1	1561564418	0.5251319408
1561564418	1.299996138	8	78	2	3	1	6	12	2	1	7	12	1	1561564419	0.5500469208
1561564420	1.291671038	8	79	2	3	1	6	13	2	2	7	11	1	1561564420	0.5416638851
1561564421	1.291643858	8	80	2	3	1	6	14	2	1	7	11	1	1561564421	0.5417449474
1561564422	1.291636944	8	81	2	3	1	6	15	2	2	7	12	0	1561564423	0.6667041779
1561564424	1.300067902	8	82	2	3	1	6	16	2	1	7	13	0	1561564424	0.6334879398
1561564425	1.29166317	8	83	2	3	1	6	17	2	2	7	13	1	1561564425	0.6334581375
1561564426	1.291661024	8	84	2	3	1	6	18	2	2	7	13	1	1561564427	0.6584169865
1561564428	1.291698933	8	85	2	3	9	7	1	3	3	7	13	n/a	n/a	n/a
1561564429	1.291625977	8	86	2	3	9	7	2	3	3	7	13	n/a	n/a	n/a
1561564430	1.291616917	8	87	2	3	9	7	3	3	3	7	13	n/a	n/a	n/a
1561564431	1.291666985	8	88	2	3	9	7	4	3	3	7	13	n/a	n/a	n/a
1561564433	1.291720867	8	89	2	3	9	7	5	3	3	7	13	n/a	n/a	n/a
1561564434	1.291651964	8	90	2	3	9	7	6	3	3	7	13	n/a	n/a	n/a
1561564435	1.291643858	8	91	2	3	9	7	7	3	3	7	13	n/a	n/a	n/a
1561564437	1.291682005	8	92	2	3	9	7	8	3	3	7	13	n/a	n/a	n/a
1561564438	1.291732073	8	93	2	3	9	7	9	3	3	7	13	n/a	n/a	n/a
1561564439	1.291694164	8	94	2	3	9	7	10	3	3	7	13	n/a	n/a	n/a
1561564441	1.291637897	8	95	2	3	5	8	1	2	2	7	12	1	1561564441	0.7089090347
1561564442	1.300082922	8	96	2	3	5	8	2	1	2	7	13	0	1561564442	0.5750141144
1561564443	1.291621923	8	97	2	3	5	8	3	1	2	7	13	1	1561564444	0.5418031216
1561564445	1.291779041	8	98	2	3	5	8	4	2	2	7	13	1	1561564445	0.7001008987
1561564446	1.291658163	8	99	2	3	5	8	5	2	2	7	12	1	1561564446	0.6833958626
1561564447	1.291664839	8	100	2	3	5	8	6	2	1	7	12	1	1561564447	0.7834899426
1561564448	1.291565895	8	101	2	3	5	8	7	2	2	7	13	0	1561564449	0.6918568611
1561564450	1.291648149	8	102	2	3	5	8	8	2	1	7	13	1	1561564450	0.4834558964
1561564451	1.29996109	8	103	2	3	5	8	9	2	1	7	13	1	1561564451	0.5333640575
1561564452	1.291723967	8	104	2	3	5	8	10	1	1	7	12	1	1561564453	0.5500440598
1561564454	1.291784048	8	105	2	3	5	8	11	2	2	7	12	1	1561564454	0.4750659466
1561564455	1.291637897	8	106	2	3	5	8	12	2	2	7	12	1	1561564455	0.5417678356
1561564456	1.291742086	8	107	2	3	5	8	13	1	1	7	11	1	1561564457	0.6250560284
1561564458	1.300000191	8	108	2	3	5	8	14	1	1	7	11	1	1561564458	0.7000420094
1561564459	1.291664839	8	109	2	3	5	8	15	1	1	7	11	1	1561564459	0.6584091187
1561564460	1.291787863	8	110	2	3	5	8	16	1	2	7	10	1	1561564460	0.5501918793
1561564461	1.291565895	8	111	2	3	5	8	17	1	2	7	10	1	1561564462	0.6251177788
1561564463	1.291692019	8	112	2	3	5	8	18	1	2	7	10	1	1561564463	0.6251921654
1561564464	1.291726112	8	113	2	3	9	9	1	3	3	7	10	n/a	n/a	n/a
1561564465	1.291564941	8	114	2	3	9	9	2	3	3	7	10	n/a	n/a	n/a
1561564467	1.291720867	8	115	2	3	9	9	3	3	3	7	10	n/a	n/a	n/a
1561564468	1.291599989	8	116	2	3	9	9	4	3	3	7	10	n/a	n/a	n/a
1561564469	1.291655064	8	117	2	3	9	9	5	3	3	7	10	n/a	n/a	n/a
1561564471	1.29161191	8	118	2	3	9	9	6	3	3	7	10	n/a	n/a	n/a
1561564472	1.291671038	8	119	2	3	9	9	7	3	3	7	10	n/a	n/a	n/a
1561564473	1.291712999	8	120	2	3	9	9	8	3	3	7	10	n/a	n/a	n/a
1561564474	1.291725874	8	121	2	3	9	9	9	3	3	7	10	n/a	n/a	n/a
1561564476	1.291706085	8	122	2	3	9	9	10	3	3	7	10	n/a	n/a	n/a
