onset	duration	run_number	trial_number	att_task	fix_direction	bar_direction	bar_period	bar_step	fix_noise_ori	stim_noise_ori	fix_stair_val	stim_stair_val	response_val	probe_time	reaction_time
1561564548	1.291352034	9	1	1	2	9	1	1	3	3	7	10	n/a	n/a	n/a
1561564549	1.291790962	9	2	1	2	9	1	2	3	3	7	10	n/a	n/a	n/a
1561564551	1.29166317	9	3	1	2	9	1	3	3	3	7	10	n/a	n/a	n/a
1561564552	1.291665077	9	4	1	2	9	1	4	3	3	7	10	n/a	n/a	n/a
1561564553	1.291759968	9	5	1	2	9	1	5	3	3	7	10	n/a	n/a	n/a
1561564555	1.291722059	9	6	1	2	9	1	6	3	3	7	10	n/a	n/a	n/a
1561564556	1.291666985	9	7	1	2	9	1	7	3	3	7	10	n/a	n/a	n/a
1561564557	1.291661024	9	8	1	2	9	1	8	3	3	7	10	n/a	n/a	n/a
1561564558	1.291663885	9	9	1	2	9	1	9	3	3	7	10	n/a	n/a	n/a
1561564560	1.291661978	9	10	1	2	9	1	10	3	3	7	10	n/a	n/a	n/a
1561564561	1.298976183	9	11	1	2	1	2	1	1	2	6	10	1	1561564561	0.6836800575
1561564562	1.299998999	9	12	1	2	1	2	2	2	1	7	10	0	1561564563	0.5668578148
1561564564	1.299963951	9	13	1	2	1	2	3	1	1	8	10	0	1561564564	0.6085381508
1561564565	1.30004096	9	14	1	2	1	2	4	2	2	8	10	1	1561564565	0.6918888092
1561564566	1.291655064	9	15	1	2	1	2	5	1	1	8	10	1	1561564567	0.5830490589
1561564568	1.299966097	9	16	1	2	1	2	6	1	2	7	10	1	1561564568	0.575275898
1561564569	1.299957991	9	17	1	2	1	2	7	1	2	7	10	1	1561564569	0.5344429016
1561564570	1.300001144	9	18	1	2	1	2	8	1	1	7	10	1	1561564571	0.5586810112
1561564572	1.291756153	9	19	1	2	1	2	9	1	1	6	10	1	1561564572	0.6337361336
1561564573	1.291661024	9	20	1	2	1	2	10	1	1	6	10	1	1561564573	0.7167999744
1561564574	1.291661024	9	21	1	2	1	2	11	1	2	7	10	0	1561564574	0.4502809048
1561564575	1.291656971	9	22	1	2	1	2	12	1	1	7	10	1	1561564576	0.500123024
1561564577	1.299992085	9	23	1	2	1	2	13	2	2	8	10	0	1561564577	0.5586488247
1561564578	1.300127029	9	24	1	2	1	2	14	1	1	8	10	1	1561564578	0.6251401901
1561564579	1.300070047	9	25	1	2	1	2	15	2	1	8	10	1	1561564580	0.6502540112
1561564581	1.291656971	9	26	1	2	1	2	16	2	2	7	10	1	1561564581	0.6344268322
1561564582	1.291749954	9	27	1	2	1	2	17	2	1	8	10	0	1561564582	0.6251590252
1561564583	1.291604042	9	28	1	2	1	2	18	1	1	8	10	1	1561564584	0.6167089939
1561564585	1.291465044	9	29	1	2	9	3	1	3	3	8	10	n/a	n/a	n/a
1561564586	1.291524172	9	30	1	2	9	3	2	3	3	8	10	n/a	n/a	n/a
1561564587	1.291661978	9	31	1	2	9	3	3	3	3	8	10	n/a	n/a	n/a
1561564588	1.291670799	9	32	1	2	9	3	4	3	3	8	10	n/a	n/a	n/a
1561564590	1.291675091	9	33	1	2	9	3	5	3	3	8	10	n/a	n/a	n/a
1561564591	1.291753054	9	34	1	2	9	3	6	3	3	8	10	n/a	n/a	n/a
1561564592	1.291662931	9	35	1	2	9	3	7	3	3	8	10	n/a	n/a	n/a
1561564594	1.291663885	9	36	1	2	9	3	8	3	3	8	10	n/a	n/a	n/a
1561564595	1.291666985	9	37	1	2	9	3	9	3	3	8	10	n/a	n/a	n/a
1561564596	1.291667938	9	38	1	2	9	3	10	3	3	8	10	n/a	n/a	n/a
1561564598	1.299779892	9	39	1	2	5	4	1	2	2	9	10	0	1561564598	0.5833790302
1561564599	1.300027847	9	40	1	2	5	4	2	2	1	9	10	1	1561564599	0.6001279354
1561564600	1.291579008	9	41	1	2	5	4	3	2	2	9	10	1	1561564601	0.5836398602
1561564601	1.291661024	9	42	1	2	5	4	4	2	1	8	10	1	1561564602	0.5585792065
1561564603	1.291604996	9	43	1	2	5	4	5	2	2	8	10	1	1561564603	0.5666899681
1561564604	1.300051212	9	44	1	2	5	4	6	2	2	8	10	1	1561564604	0.5251309872
1561564605	1.291687012	9	45	1	2	5	4	7	2	2	7	10	1	1561564606	0.5917298794
1561564607	1.299952984	9	46	1	2	5	4	8	1	1	8	10	0	1561564607	0.6086411476
1561564608	1.291662931	9	47	1	2	5	4	9	2	1	9	10	0	1561564608	0.4919621944
1561564609	1.299993992	9	48	1	2	5	4	10	1	1	9	10	1	1561564610	0.5001139641
1561564611	1.299979925	9	49	1	2	5	4	11	2	1	9	10	1	1561564611	0.4584400654
1561564612	1.300032854	9	50	1	2	5	4	12	2	2	8	10	1	1561564612	0.575026989
1561564613	1.300007105	9	51	1	2	5	4	13	2	1	9	10	0	1561564614	0.5417780876
1561564615	1.299947977	9	52	1	2	5	4	14	2	2	9	10	1	1561564615	0.5084650517
1561564616	1.300107002	9	53	1	2	5	4	15	1	2	9	10	1	1561564616	0.550041914
1561564617	1.300002098	9	54	1	2	5	4	16	1	2	10	10	0	1561564617	0.4668359756
1561564618	1.291697025	9	55	1	2	5	4	17	2	2	10	10	1	1561564619	0.5501220226
1561564620	1.291667938	9	56	1	2	5	4	18	1	2	10	10	1	1561564620	0.4418301582
1561564621	1.291759014	9	57	1	2	9	5	1	3	3	10	10	n/a	n/a	n/a
1561564622	1.291682005	9	58	1	2	9	5	2	3	3	10	10	n/a	n/a	n/a
1561564624	1.291664124	9	59	1	2	9	5	3	3	3	10	10	n/a	n/a	n/a
1561564625	1.29172802	9	60	1	2	9	5	4	3	3	10	10	n/a	n/a	n/a
1561564626	1.291665077	9	61	1	2	9	5	5	3	3	10	10	n/a	n/a	n/a
1561564628	1.291606903	9	62	1	2	9	5	6	3	3	10	10	n/a	n/a	n/a
1561564629	1.291650057	9	63	1	2	9	5	7	3	3	10	10	n/a	n/a	n/a
1561564630	1.291693926	9	64	1	2	9	5	8	3	3	10	10	n/a	n/a	n/a
1561564631	1.291592121	9	65	1	2	9	5	9	3	3	10	10	n/a	n/a	n/a
1561564633	1.291662931	9	66	1	2	9	5	10	3	3	10	10	n/a	n/a	n/a
1561564634	1.291733027	9	67	1	2	1	6	1	2	2	9	10	1	1561564634	0.6504840851
1561564635	1.291702032	9	68	1	2	1	6	2	1	1	9	10	1	1561564636	0.6083769798
1561564637	1.300006151	9	69	1	2	1	6	3	1	2	9	10	1	1561564637	0.575122118
1561564638	1.299994946	9	70	1	2	1	6	4	2	1	8	10	1	1561564638	0.5001239777
1561564639	1.291662931	9	71	1	2	1	6	5	2	2	8	10	1	1561564640	0.5418291092
1561564641	1.291671038	9	72	1	2	1	6	6	1	2	8	10	1	1561564641	0.5083818436
1561564642	1.300005913	9	73	1	2	1	6	7	1	1	7	10	1	1561564642	0.5668079853
1561564643	1.291740894	9	74	1	2	1	6	8	2	1	7	10	1	1561564644	0.4750351906
1561564644	1.291697025	9	75	1	2	1	6	9	1	1	8	10	0	1561564645	0.7419769764
1561564646	1.291650057	9	76	1	2	1	6	10	1	2	8	10	1	1561564646	0.4918279648
1561564647	1.300028086	9	77	1	2	1	6	11	1	1	8	10	1	1561564647	0.6000640392
1561564648	1.291633844	9	78	1	2	1	6	12	1	2	7	10	1	1561564649	0.5750360489
1561564650	1.291666985	9	79	1	2	1	6	13	2	2	8	10	0	1561564650	0.5334529877
1561564651	1.29176116	9	80	1	2	1	6	14	1	1	8	10	1	1561564651	0.5250470638
1561564652	1.291668892	9	81	1	2	1	6	15	2	2	8	10	1	1561564653	0.5417728424
1561564654	1.291688204	9	82	1	2	1	6	16	2	1	7	10	1	1561564654	0.5584089756
1561564655	1.291646004	9	83	1	2	1	6	17	2	1	8	10	0	1561564655	0.5667169094
1561564656	1.291744232	9	84	1	2	1	6	18	2	2	8	10	1	1561564657	0.5334720612
1561564658	1.291668892	9	85	1	2	9	7	1	3	3	8	10	n/a	n/a	n/a
1561564659	1.291605949	9	86	1	2	9	7	2	3	3	8	10	n/a	n/a	n/a
1561564660	1.291711092	9	87	1	2	9	7	3	3	3	8	10	n/a	n/a	n/a
1561564661	1.291618109	9	88	1	2	9	7	4	3	3	8	10	n/a	n/a	n/a
1561564663	1.291719913	9	89	1	2	9	7	5	3	3	8	10	n/a	n/a	n/a
1561564664	1.291656971	9	90	1	2	9	7	6	3	3	8	10	n/a	n/a	n/a
1561564665	1.291666985	9	91	1	2	9	7	7	3	3	8	10	n/a	n/a	n/a
1561564667	1.291697979	9	92	1	2	9	7	8	3	3	8	10	n/a	n/a	n/a
1561564668	1.291657925	9	93	1	2	9	7	9	3	3	8	10	n/a	n/a	n/a
1561564669	1.291667938	9	94	1	2	9	7	10	3	3	8	10	n/a	n/a	n/a
1561564671	1.291801929	9	95	1	2	5	8	1	2	2	8	10	1	1561564671	0.6501209736
1561564672	1.300090075	9	96	1	2	5	8	2	2	1	9	10	0	1561564672	0.4499819279
1561564673	1.291670084	9	97	1	2	5	8	3	1	2	9	10	1	1561564673	0.541893959
1561564674	1.299944162	9	98	1	2	5	8	4	1	2	9	10	1	1561564675	0.5584490299
1561564676	1.300003052	9	99	1	2	5	8	5	2	1	10	10	0	1561564676	0.5667698383
1561564677	1.291658878	9	100	1	2	5	8	6	2	1	10	10	1	1561564677	0.5584211349
1561564678	1.300006866	9	101	1	2	5	8	7	1	2	10	10	1	1561564679	0.6417558193
1561564680	1.300090075	9	102	1	2	5	8	8	1	1	9	10	1	1561564680	0.5584189892
1561564681	1.30011487	9	103	1	2	5	8	9	2	2	9	10	1	1561564681	0.7917580605
1561564682	1.291754961	9	104	1	2	5	8	10	2	2	9	10	1	1561564683	0.6250181198
1561564684	1.300055981	9	105	1	2	5	8	11	1	2	8	10	1	1561564684	0.5418798923
1561564685	1.291656017	9	106	1	2	5	8	12	2	2	8	10	1	1561564685	0.5750160217
1561564686	1.291664839	9	107	1	2	5	8	13	2	1	8	10	1	1561564687	0.5251219273
1561564687	1.299993038	9	108	1	2	5	8	14	1	1	7	10	1	1561564688	0.5001070499
1561564689	1.299960136	9	109	1	2	5	8	15	1	1	7	10	1	1561564689	0.6001520157
1561564690	1.291712999	9	110	1	2	5	8	16	2	2	7	10	1	1561564690	0.5500850677
1561564691	1.291722059	9	111	1	2	5	8	17	2	2	6	10	1	1561564692	0.541675806
1561564693	1.291668892	9	112	1	2	5	8	18	2	1	6	10	1	1561564693	0.7417321205
1561564694	1.29174304	9	113	1	2	9	9	1	3	3	6	10	n/a	n/a	n/a
1561564695	1.29175806	9	114	1	2	9	9	2	3	3	6	10	n/a	n/a	n/a
1561564697	1.291662216	9	115	1	2	9	9	3	3	3	6	10	n/a	n/a	n/a
1561564698	1.291661024	9	116	1	2	9	9	4	3	3	6	10	n/a	n/a	n/a
1561564699	1.291657925	9	117	1	2	9	9	5	3	3	6	10	n/a	n/a	n/a
1561564700	1.29174304	9	118	1	2	9	9	6	3	3	6	10	n/a	n/a	n/a
1561564702	1.291666031	9	119	1	2	9	9	7	3	3	6	10	n/a	n/a	n/a
1561564703	1.291670084	9	120	1	2	9	9	8	3	3	6	10	n/a	n/a	n/a
1561564704	1.291674137	9	121	1	2	9	9	9	3	3	6	10	n/a	n/a	n/a
1561564706	1.291644096	9	122	1	2	9	9	10	3	3	6	10	n/a	n/a	n/a
