onset	duration	run_number	trial_number	att_task	fix_direction	bar_direction	bar_period	bar_step	fix_noise_ori	stim_noise_ori	fix_stair_val	stim_stair_val	response_val	probe_time	reaction_time
1561387360	1.291348934	8	1	2	3	9	1	1	3	3	12	15	n/a	n/a	n/a
1561387362	1.291706085	8	2	2	3	9	1	2	3	3	12	15	n/a	n/a	n/a
1561387363	1.291640043	8	3	2	3	9	1	3	3	3	12	15	n/a	n/a	n/a
1561387364	1.291673899	8	4	2	3	9	1	4	3	3	12	15	n/a	n/a	n/a
1561387366	1.299323797	8	5	2	3	9	1	5	3	3	12	15	n/a	n/a	n/a
1561387367	1.291719913	8	6	2	3	9	1	6	3	3	12	15	n/a	n/a	n/a
1561387368	1.291659832	8	7	2	3	9	1	7	3	3	12	15	n/a	n/a	n/a
1561387370	1.292014122	8	8	2	3	9	1	8	3	3	12	15	n/a	n/a	n/a
1561387371	1.2917521	8	9	2	3	9	1	9	3	3	12	15	n/a	n/a	n/a
1561387372	1.2917521	8	10	2	3	9	1	10	3	3	12	15	n/a	n/a	n/a
1561387373	1.298977137	8	11	2	3	1	2	1	2	2	12	15	n/a	1561387374	n/a
1561387375	1.291718006	8	12	2	3	1	2	2	1	1	12	15	1	1561387375	0.8835179806
1561387376	1.291642904	8	13	2	3	1	2	3	1	1	12	14	1	1561387376	0.7835109234
1561387377	1.291722775	8	14	2	3	1	2	4	1	2	12	14	1	1561387378	0.6501851082
1561387379	1.29163909	8	15	2	3	1	2	5	1	2	12	14	1	1561387379	0.8914890289
1561387380	1.291646957	8	16	2	3	1	2	6	1	1	12	13	1	1561387380	0.6000599861
1561387381	1.291708946	8	17	2	3	1	2	7	2	1	12	13	1	1561387382	0.6837379932
1561387383	1.291660786	8	18	2	3	1	2	8	2	2	12	13	1	1561387383	0.5419211388
1561387384	1.30000186	8	19	2	3	1	2	9	2	2	12	12	1	1561387384	0.7085280418
1561387385	1.300112963	8	20	2	3	1	2	10	2	1	12	12	1	1561387386	0.6512169838
1561387386	1.291676998	8	21	2	3	1	2	11	2	2	12	12	1	1561387387	0.767688036
1561387388	1.300086021	8	22	2	3	1	2	12	2	1	12	13	0	1561387388	0.7254221439
1561387389	1.300092936	8	23	2	3	1	2	13	2	2	12	13	1	1561387389	0.6670899391
1561387390	1.300002098	8	24	2	3	1	2	14	2	1	12	13	1	1561387391	0.7085149288
1561387392	1.291661978	8	25	2	3	1	2	15	1	1	12	12	1	1561387392	0.6585509777
1561387393	1.291610003	8	26	2	3	1	2	16	2	1	12	13	0	1561387393	0.5835549831
1561387394	1.291748047	8	27	2	3	1	2	17	1	1	12	13	1	1561387395	0.7583909035
1561387396	1.291666985	8	28	2	3	1	2	18	1	2	12	13	1	1561387396	0.8918762207
1561387397	1.291502953	8	29	2	3	9	3	1	3	3	12	13	n/a	n/a	n/a
1561387398	1.291529894	8	30	2	3	9	3	2	3	3	12	13	n/a	n/a	n/a
1561387400	1.291607857	8	31	2	3	9	3	3	3	3	12	13	n/a	n/a	n/a
1561387401	1.291759014	8	32	2	3	9	3	4	3	3	12	13	n/a	n/a	n/a
1561387402	1.291754007	8	33	2	3	9	3	5	3	3	12	13	n/a	n/a	n/a
1561387403	1.291661978	8	34	2	3	9	3	6	3	3	12	13	n/a	n/a	n/a
1561387405	1.291625023	8	35	2	3	9	3	7	3	3	12	13	n/a	n/a	n/a
1561387406	1.291752815	8	36	2	3	9	3	8	3	3	12	13	n/a	n/a	n/a
1561387407	1.29995513	8	37	2	3	9	3	9	3	3	12	13	n/a	n/a	n/a
1561387409	1.291688919	8	38	2	3	9	3	10	3	3	12	13	n/a	n/a	n/a
1561387410	1.291960001	8	39	2	3	5	4	1	1	1	12	13	n/a	1561387410	n/a
1561387411	1.291620016	8	40	2	3	5	4	2	2	1	12	12	1	1561387412	0.6921510696
1561387413	1.291683912	8	41	2	3	5	4	3	2	2	12	12	1	1561387413	0.675055027
1561387414	1.300065041	8	42	2	3	5	4	4	1	1	12	12	1	1561387414	0.7333459854
1561387415	1.300001144	8	43	2	3	5	4	5	1	2	12	13	0	1561387415	0.6169419289
1561387416	1.291665077	8	44	2	3	5	4	6	1	1	12	13	1	1561387417	0.7335009575
1561387418	1.291670084	8	45	2	3	5	4	7	1	2	12	14	0	1561387418	0.6418740749
1561387419	1.291578054	8	46	2	3	5	4	8	1	2	12	15	0	1561387419	0.7500720024
1561387420	1.291723013	8	47	2	3	5	4	9	2	1	12	15	1	1561387421	0.6417660713
1561387422	1.291692972	8	48	2	3	5	4	10	1	2	12	15	1	1561387422	0.6167700291
1561387423	1.300021887	8	49	2	3	5	4	11	1	2	12	14	1	1561387423	0.625013113
1561387424	1.291688919	8	50	2	3	5	4	12	1	2	12	14	n/a	1561387425	n/a
1561387426	1.291607141	8	51	2	3	5	4	13	2	1	12	14	0	1561387426	0.933478117
1561387427	1.291766167	8	52	2	3	5	4	14	2	2	12	15	1	1561387427	0.8083841801
1561387428	1.300043106	8	53	2	3	5	4	15	2	1	12	15	n/a	1561387428	n/a
1561387429	1.291690826	8	54	2	3	5	4	16	1	2	12	15	n/a	1561387430	n/a
1561387431	1.300000906	8	55	2	3	5	4	17	1	1	12	15	n/a	1561387431	n/a
1561387432	1.291665077	8	56	2	3	5	4	18	2	1	12	15	0	1561387432	0.183355093
1561387433	1.291702032	8	57	2	3	9	5	1	3	3	12	15	n/a	n/a	n/a
1561387435	1.291687965	8	58	2	3	9	5	2	3	3	12	15	n/a	n/a	n/a
1561387436	1.291652918	8	59	2	3	9	5	3	3	3	12	15	n/a	n/a	n/a
1561387437	1.291620016	8	60	2	3	9	5	4	3	3	12	15	n/a	n/a	n/a
1561387439	1.291633844	8	61	2	3	9	5	5	3	3	12	15	n/a	n/a	n/a
1561387440	1.291585207	8	62	2	3	9	5	6	3	3	12	15	n/a	n/a	n/a
1561387441	1.291579008	8	63	2	3	9	5	7	3	3	12	15	n/a	n/a	n/a
1561387442	1.29180789	8	64	2	3	9	5	8	3	3	12	15	n/a	n/a	n/a
1561387444	1.29163003	8	65	2	3	9	5	9	3	3	12	15	n/a	n/a	n/a
1561387445	1.291659832	8	66	2	3	9	5	10	3	3	12	15	n/a	n/a	n/a
1561387446	1.291680813	8	67	2	3	1	6	1	2	1	12	15	1	1561387447	0.5667560101
1561387448	1.300127029	8	68	2	3	1	6	2	2	1	12	15	1	1561387448	0.2083580494
1561387449	1.291686058	8	69	2	3	1	6	3	1	1	12	14	1	1561387449	0.4417841434
1561387450	1.29164505	8	70	2	3	1	6	4	1	1	12	15	0	1561387451	0.7418839931
1561387452	1.291695118	8	71	2	3	1	6	5	1	1	12	15	1	1561387452	0.6501729488
1561387453	1.291637897	8	72	2	3	1	6	6	2	1	12	15	1	1561387453	0.6667120457
1561387454	1.291659832	8	73	2	3	1	6	7	2	1	12	15	n/a	1561387455	n/a
1561387455	1.300012112	8	74	2	3	1	6	8	2	1	12	14	1	1561387456	0.6667010784
1561387457	1.291641951	8	75	2	3	1	6	9	2	1	12	14	1	1561387457	0.6250989437
1561387458	1.291621923	8	76	2	3	1	6	10	2	1	12	14	n/a	1561387458	n/a
1561387459	1.291598082	8	77	2	3	1	6	11	1	1	12	14	n/a	1561387460	n/a
1561387461	1.299959898	8	78	2	3	1	6	12	2	1	12	15	0	1561387461	0.600071907
1561387462	1.30002284	8	79	2	3	1	6	13	1	2	12	15	0	1561387462	0.7334980965
1561387463	1.291662931	8	80	2	3	1	6	14	2	2	12	15	1	1561387464	0.8001301289
1561387465	1.300045013	8	81	2	3	1	6	15	2	2	12	15	0	1561387465	0.7837247849
1561387466	1.300013065	8	82	2	3	1	6	16	2	2	12	15	1	1561387466	0.8251259327
1561387467	1.299977064	8	83	2	3	1	6	17	1	2	12	15	n/a	1561387468	n/a
1561387469	1.291661978	8	84	2	3	1	6	18	1	1	12	15	1	1561387469	0.9001989365
1561387470	1.291370869	8	85	2	3	9	7	1	3	3	12	15	n/a	n/a	n/a
1561387471	1.291522026	8	86	2	3	9	7	2	3	3	12	15	n/a	n/a	n/a
1561387472	1.291659117	8	87	2	3	9	7	3	3	3	12	15	n/a	n/a	n/a
1561387474	1.291754007	8	88	2	3	9	7	4	3	3	12	15	n/a	n/a	n/a
1561387475	1.291640043	8	89	2	3	9	7	5	3	3	12	15	n/a	n/a	n/a
1561387476	1.291664124	8	90	2	3	9	7	6	3	3	12	15	n/a	n/a	n/a
1561387478	1.291712046	8	91	2	3	9	7	7	3	3	12	15	n/a	n/a	n/a
1561387479	1.291599989	8	92	2	3	9	7	8	3	3	12	15	n/a	n/a	n/a
1561387480	1.291665077	8	93	2	3	9	7	9	3	3	12	15	n/a	n/a	n/a
1561387482	1.291691065	8	94	2	3	9	7	10	3	3	12	15	n/a	n/a	n/a
1561387483	1.291689157	8	95	2	3	5	8	1	1	2	12	15	n/a	1561387483	n/a
1561387484	1.291743994	8	96	2	3	5	8	2	1	2	12	15	0	1561387484	0.7503569126
1561387485	1.299970865	8	97	2	3	5	8	3	1	2	12	15	0	1561387486	0.8252038956
1561387487	1.291671038	8	98	2	3	5	8	4	2	1	12	15	0	1561387487	0.6584770679
1561387488	1.291665077	8	99	2	3	5	8	5	2	1	12	15	1	1561387488	0.7918498516
1561387489	1.291751862	8	100	2	3	5	8	6	1	2	12	15	n/a	1561387490	n/a
1561387491	1.291780949	8	101	2	3	5	8	7	1	2	12	15	1	1561387491	0.250202179
1561387492	1.291516066	8	102	2	3	5	8	8	1	1	12	15	0	1561387492	0.1166701317
1561387493	1.291618109	8	103	2	3	5	8	9	1	1	12	15	1	1561387494	0.5501060486
1561387495	1.308331013	8	104	2	3	5	8	10	1	1	12	15	1	1561387495	0.6002099514
1561387496	1.291624069	8	105	2	3	5	8	11	1	2	12	14	1	1561387496	0.7417070866
1561387497	1.300042868	8	106	2	3	5	8	12	2	2	12	14	1	1561387498	0.7168500423
1561387498	1.29997611	8	107	2	3	5	8	13	1	2	12	15	0	1561387499	0.7167282104
1561387500	1.291632175	8	108	2	3	5	8	14	2	2	12	15	n/a	1561387500	n/a
1561387501	1.291759014	8	109	2	3	5	8	15	1	2	12	15	n/a	1561387501	n/a
1561387502	1.291743994	8	110	2	3	5	8	16	2	2	12	15	0	1561387503	0.05009484291
1561387504	1.291627884	8	111	2	3	5	8	17	2	1	12	15	n/a	1561387504	n/a
1561387505	1.29174304	8	112	2	3	5	8	18	1	1	12	15	n/a	1561387505	n/a
1561387506	1.291577101	8	113	2	3	9	9	1	3	3	12	15	n/a	n/a	n/a
1561387508	1.291640997	8	114	2	3	9	9	2	3	3	12	15	n/a	n/a	n/a
1561387509	1.291634083	8	115	2	3	9	9	3	3	3	12	15	n/a	n/a	n/a
1561387510	1.291671991	8	116	2	3	9	9	4	3	3	12	15	n/a	n/a	n/a
1561387512	1.291679144	8	117	2	3	9	9	5	3	3	12	15	n/a	n/a	n/a
1561387513	1.291666031	8	118	2	3	9	9	6	3	3	12	15	n/a	n/a	n/a
1561387514	1.291699171	8	119	2	3	9	9	7	3	3	12	15	n/a	n/a	n/a
1561387515	1.291670084	8	120	2	3	9	9	8	3	3	12	15	n/a	n/a	n/a
1561387517	1.291785955	8	121	2	3	9	9	9	3	3	12	15	n/a	n/a	n/a
1561387518	1.291749954	8	122	2	3	9	9	10	3	3	12	15	n/a	n/a	n/a
