onset	duration	run_number	trial_number	att_task	fix_direction	bar_direction	bar_period	bar_step	fix_noise_ori	stim_noise_ori	fix_stair_val	stim_stair_val	response_val	probe_time	reaction_time
1561387606	1.291445971	9	1	1	2	9	1	1	3	3	12	15	n/a	n/a	n/a
1561387608	1.291771889	9	2	1	2	9	1	2	3	3	12	15	n/a	n/a	n/a
1561387609	1.291770935	9	3	1	2	9	1	3	3	3	12	15	n/a	n/a	n/a
1561387610	1.29182291	9	4	1	2	9	1	4	3	3	12	15	n/a	n/a	n/a
1561387612	1.291639805	9	5	1	2	9	1	5	3	3	12	15	n/a	n/a	n/a
1561387613	1.291714191	9	6	1	2	9	1	6	3	3	12	15	n/a	n/a	n/a
1561387614	1.291597843	9	7	1	2	9	1	7	3	3	12	15	n/a	n/a	n/a
1561387615	1.291601896	9	8	1	2	9	1	8	3	3	12	15	n/a	n/a	n/a
1561387617	1.291676044	9	9	1	2	9	1	9	3	3	12	15	n/a	n/a	n/a
1561387618	1.291681051	9	10	1	2	9	1	10	3	3	12	15	n/a	n/a	n/a
1561387619	1.290661097	9	11	1	2	1	2	1	2	2	12	15	1	1561387620	0.6837201118
1561387621	1.291615009	9	12	1	2	1	2	2	2	1	11	15	1	1561387621	0.4917089939
1561387622	1.299941063	9	13	1	2	1	2	3	1	2	11	15	1	1561387622	0.6667687893
1561387623	1.300069809	9	14	1	2	1	2	4	2	2	11	15	1	1561387624	0.7668380737
1561387625	1.299998045	9	15	1	2	1	2	5	1	2	12	15	0	1561387625	0.5913670063
1561387626	1.291646004	9	16	1	2	1	2	6	2	2	12	15	1	1561387626	0.5758969784
1561387627	1.291689157	9	17	1	2	1	2	7	1	2	13	15	0	1561387628	0.7920358181
1561387629	1.300033808	9	18	1	2	1	2	8	2	2	13	15	1	1561387629	0.6252968311
1561387630	1.299953938	9	19	1	2	1	2	9	1	1	13	15	1	1561387630	0.5918259621
1561387631	1.299979925	9	20	1	2	1	2	10	2	1	14	15	0	1561387631	0.6585381031
1561387632	1.291666031	9	21	1	2	1	2	11	2	1	14	15	1	1561387633	0.5838398933
1561387634	1.300000906	9	22	1	2	1	2	12	2	1	14	15	1	1561387634	0.7750799656
1561387635	1.299856901	9	23	1	2	1	2	13	2	1	15	15	0	1561387635	0.7002220154
1561387636	1.300089836	9	24	1	2	1	2	14	1	1	15	15	1	1561387637	0.692813158
1561387638	1.291666985	9	25	1	2	1	2	15	1	2	15	15	0	1561387638	0.6251311302
1561387639	1.291671991	9	26	1	2	1	2	16	2	2	15	15	0	1561387639	0.6837179661
1561387640	1.291752815	9	27	1	2	1	2	17	1	2	15	15	0	1561387641	0.7500479221
1561387642	1.291750908	9	28	1	2	1	2	18	1	1	15	15	0	1561387642	0.8419439793
1561387643	1.29125905	9	29	1	2	9	3	1	3	3	15	15	n/a	n/a	n/a
1561387644	1.291522026	9	30	1	2	9	3	2	3	3	15	15	n/a	n/a	n/a
1561387645	1.29163599	9	31	1	2	9	3	3	3	3	15	15	n/a	n/a	n/a
1561387647	1.291665077	9	32	1	2	9	3	4	3	3	15	15	n/a	n/a	n/a
1561387648	1.291740894	9	33	1	2	9	3	5	3	3	15	15	n/a	n/a	n/a
1561387649	1.291740894	9	34	1	2	9	3	6	3	3	15	15	n/a	n/a	n/a
1561387651	1.291656971	9	35	1	2	9	3	7	3	3	15	15	n/a	n/a	n/a
1561387652	1.291644812	9	36	1	2	9	3	8	3	3	15	15	n/a	n/a	n/a
1561387653	1.291692019	9	37	1	2	9	3	9	3	3	15	15	n/a	n/a	n/a
1561387655	1.291632891	9	38	1	2	9	3	10	3	3	15	15	n/a	n/a	n/a
1561387656	1.291635036	9	39	1	2	5	4	1	1	1	15	15	1	1561387656	0.6666018963
1561387657	1.291698933	9	40	1	2	5	4	2	1	2	15	15	0	1561387658	0.5834059715
1561387658	1.291685104	9	41	1	2	5	4	3	1	1	15	15	1	1561387659	0.6752319336
1561387660	1.291679144	9	42	1	2	5	4	4	2	1	15	15	1	1561387660	0.7000918388
1561387661	1.300004005	9	43	1	2	5	4	5	2	2	14	15	1	1561387661	0.716684103
1561387662	1.299978971	9	44	1	2	5	4	6	1	1	14	15	1	1561387663	0.83345294
1561387664	1.299995184	9	45	1	2	5	4	7	1	2	14	15	n/a	1561387664	n/a
1561387665	1.291644096	9	46	1	2	5	4	8	2	1	14	15	n/a	1561387665	n/a
1561387666	1.291723013	9	47	1	2	5	4	9	1	2	15	15	0	1561387667	0.09175109863
1561387668	1.291757107	9	48	1	2	5	4	10	2	1	15	15	1	1561387668	0.7667219639
1561387669	1.291779995	9	49	1	2	5	4	11	1	2	15	15	1	1561387669	0.6001710892
1561387670	1.291671991	9	50	1	2	5	4	12	2	1	14	15	1	1561387671	0.7168138027
1561387672	1.291642189	9	51	1	2	5	4	13	1	1	14	15	1	1561387672	0.8251330853
1561387673	1.299994946	9	52	1	2	5	4	14	2	1	14	15	1	1561387673	0.9001278877
1561387674	1.291770935	9	53	1	2	5	4	15	2	2	14	15	n/a	1561387674	n/a
1561387675	1.300024986	9	54	1	2	5	4	16	2	1	14	15	n/a	1561387676	n/a
1561387677	1.299977064	9	55	1	2	5	4	17	2	1	13	15	1	1561387677	0.05843400955
1561387678	1.30010891	9	56	1	2	5	4	18	1	1	13	15	1	1561387678	0.9167420864
1561387679	1.29161191	9	57	1	2	9	5	1	3	3	13	15	n/a	n/a	n/a
1561387681	1.291642189	9	58	1	2	9	5	2	3	3	13	15	n/a	n/a	n/a
1561387682	1.291670799	9	59	1	2	9	5	3	3	3	13	15	n/a	n/a	n/a
1561387683	1.291666985	9	60	1	2	9	5	4	3	3	13	15	n/a	n/a	n/a
1561387685	1.291696072	9	61	1	2	9	5	5	3	3	13	15	n/a	n/a	n/a
1561387686	1.291672945	9	62	1	2	9	5	6	3	3	13	15	n/a	n/a	n/a
1561387687	1.291651011	9	63	1	2	9	5	7	3	3	13	15	n/a	n/a	n/a
1561387688	1.291669846	9	64	1	2	9	5	8	3	3	13	15	n/a	n/a	n/a
1561387690	1.291685104	9	65	1	2	9	5	9	3	3	13	15	n/a	n/a	n/a
1561387691	1.291644096	9	66	1	2	9	5	10	3	3	13	15	n/a	n/a	n/a
1561387692	1.291890144	9	67	1	2	1	6	1	1	2	13	15	n/a	1561387693	n/a
1561387694	1.291428804	9	68	1	2	1	6	2	1	2	13	15	n/a	1561387694	n/a
1561387695	1.291717052	9	69	1	2	1	6	3	1	2	13	15	n/a	1561387695	n/a
1561387696	1.291655779	9	70	1	2	1	6	4	2	1	13	15	n/a	1561387697	n/a
1561387698	1.299999952	9	71	1	2	1	6	5	1	2	13	15	1	1561387698	0.2754061222
1561387699	1.299999952	9	72	1	2	1	6	6	1	2	14	15	0	1561387699	0.5334160328
1561387700	1.300020933	9	73	1	2	1	6	7	1	2	15	15	0	1561387701	0.6584668159
1561387701	1.291687965	9	74	1	2	1	6	8	1	1	15	15	1	1561387702	0.6085040569
1561387703	1.291638136	9	75	1	2	1	6	9	1	2	15	15	0	1561387703	0.7083771229
1561387704	1.291723967	9	76	1	2	1	6	10	2	1	15	15	n/a	1561387704	n/a
1561387705	1.300023079	9	77	1	2	1	6	11	1	2	15	15	0	1561387706	0.5833859444
1561387707	1.291682005	9	78	1	2	1	6	12	2	1	15	15	0	1561387707	0.5751700401
1561387708	1.29172492	9	79	1	2	1	6	13	1	1	15	15	1	1561387708	0.8918418884
1561387709	1.291666985	9	80	1	2	1	6	14	2	2	15	15	1	1561387710	0.841755867
1561387711	1.291790009	9	81	1	2	1	6	15	1	2	15	15	n/a	1561387711	n/a
1561387712	1.291707039	9	82	1	2	1	6	16	1	2	15	15	n/a	1561387712	n/a
1561387713	1.291738033	9	83	1	2	1	6	17	1	1	14	15	1	1561387714	0.7083411217
1561387714	1.291675091	9	84	1	2	1	6	18	1	2	15	15	0	1561387715	0.6833689213
1561387716	1.291438103	9	85	1	2	9	7	1	3	3	15	15	n/a	n/a	n/a
1561387717	1.291646957	9	86	1	2	9	7	2	3	3	15	15	n/a	n/a	n/a
1561387718	1.29164505	9	87	1	2	9	7	3	3	3	15	15	n/a	n/a	n/a
1561387720	1.291558027	9	88	1	2	9	7	4	3	3	15	15	n/a	n/a	n/a
1561387721	1.291670084	9	89	1	2	9	7	5	3	3	15	15	n/a	n/a	n/a
1561387722	1.291654825	9	90	1	2	9	7	6	3	3	15	15	n/a	n/a	n/a
1561387724	1.291756153	9	91	1	2	9	7	7	3	3	15	15	n/a	n/a	n/a
1561387725	1.291614056	9	92	1	2	9	7	8	3	3	15	15	n/a	n/a	n/a
1561387726	1.291631937	9	93	1	2	9	7	9	3	3	15	15	n/a	n/a	n/a
1561387728	1.291666031	9	94	1	2	9	7	10	3	3	15	15	n/a	n/a	n/a
1561387729	1.291640997	9	95	1	2	5	8	1	2	2	15	15	0	1561387729	0.5419220924
1561387730	1.291664839	9	96	1	2	5	8	2	2	1	15	15	0	1561387730	0.7336339951
1561387731	1.291624069	9	97	1	2	5	8	3	1	1	15	15	1	1561387732	0.6917598248
1561387733	1.291599035	9	98	1	2	5	8	4	1	1	15	15	1	1561387733	0.7084431648
1561387734	1.291665792	9	99	1	2	5	8	5	2	2	14	15	1	1561387734	0.6417951584
1561387735	1.291638851	9	100	1	2	5	8	6	1	2	14	15	1	1561387736	0.6334409714
1561387737	1.291723967	9	101	1	2	5	8	7	2	2	14	15	1	1561387737	0.7918329239
1561387738	1.291630983	9	102	1	2	5	8	8	1	2	14	15	n/a	1561387738	n/a
1561387739	1.300041914	9	103	1	2	5	8	9	2	1	13	15	1	1561387740	0.816740036
1561387741	1.299976826	9	104	1	2	5	8	10	1	1	13	15	1	1561387741	0.6252121925
1561387742	1.291754007	9	105	1	2	5	8	11	1	2	14	15	0	1561387742	0.6252408028
1561387743	1.300061941	9	106	1	2	5	8	12	2	1	14	15	n/a	1561387743	n/a
1561387744	1.300029039	9	107	1	2	5	8	13	1	2	14	15	n/a	1561387745	n/a
1561387746	1.291665077	9	108	1	2	5	8	14	1	1	14	15	1	1561387746	0.6584370136
1561387747	1.291640043	9	109	1	2	5	8	15	1	2	14	15	1	1561387747	0.5918829441
1561387748	1.291698933	9	110	1	2	5	8	16	2	2	13	15	1	1561387749	0.7084150314
1561387750	1.29176712	9	111	1	2	5	8	17	1	2	14	15	0	1561387750	0.8667111397
1561387751	1.291754961	9	112	1	2	5	8	18	2	1	14	15	1	1561387751	0.8501222134
1561387752	1.291705132	9	113	1	2	9	9	1	3	3	14	15	n/a	n/a	n/a
1561387754	1.291665077	9	114	1	2	9	9	2	3	3	14	15	n/a	n/a	n/a
1561387755	1.291666985	9	115	1	2	9	9	3	3	3	14	15	n/a	n/a	n/a
1561387756	1.291651964	9	116	1	2	9	9	4	3	3	14	15	n/a	n/a	n/a
1561387757	1.291675091	9	117	1	2	9	9	5	3	3	14	15	n/a	n/a	n/a
1561387759	1.291697979	9	118	1	2	9	9	6	3	3	14	15	n/a	n/a	n/a
1561387760	1.29166007	9	119	1	2	9	9	7	3	3	14	15	n/a	n/a	n/a
1561387761	1.291671038	9	120	1	2	9	9	8	3	3	14	15	n/a	n/a	n/a
1561387763	1.291697025	9	121	1	2	9	9	9	3	3	14	15	n/a	n/a	n/a
1561387764	1.29164505	9	122	1	2	9	9	10	3	3	14	15	n/a	n/a	n/a
