onset	duration	run_number	trial_number	att_task	fix_direction	bar_direction	bar_period	bar_step	fix_noise_ori	stim_noise_ori	fix_stair_val	stim_stair_val	response_val	probe_time	reaction_time
1561640039	1.291384935	3	1	1	4	9	1	1	3	3	7	14	n/a	n/a	n/a
1561640040	1.291789055	3	2	1	4	9	1	2	3	3	7	14	n/a	n/a	n/a
1561640041	1.291679859	3	3	1	4	9	1	3	3	3	7	14	n/a	n/a	n/a
1561640043	1.291770935	3	4	1	4	9	1	4	3	3	7	14	n/a	n/a	n/a
1561640044	1.291628838	3	5	1	4	9	1	5	3	3	7	14	n/a	n/a	n/a
1561640045	1.291722059	3	6	1	4	9	1	6	3	3	7	14	n/a	n/a	n/a
1561640047	1.291693926	3	7	1	4	9	1	7	3	3	7	14	n/a	n/a	n/a
1561640048	1.291636944	3	8	1	4	9	1	8	3	3	7	14	n/a	n/a	n/a
1561640049	1.291695118	3	9	1	4	9	1	9	3	3	7	14	n/a	n/a	n/a
1561640050	1.291637897	3	10	1	4	9	1	10	3	3	7	14	n/a	n/a	n/a
1561640052	1.307274103	3	11	1	4	1	2	1	2	2	7	14	1	1561640052	0.7002921104
1561640053	1.300089121	3	12	1	4	1	2	2	1	2	7	14	1	1561640053	0.608520031
1561640054	1.308301926	3	13	1	4	1	2	3	1	2	6	14	1	1561640055	0.5334210396
1561640056	1.299948931	3	14	1	4	1	2	4	1	2	6	14	1	1561640056	0.6584889889
1561640057	1.300079107	3	15	1	4	1	2	5	2	2	6	14	1	1561640057	0.5082371235
1561640058	1.308336973	3	16	1	4	1	2	6	1	1	5	14	1	1561640059	0.483394146
1561640060	1.299998999	3	17	1	4	1	2	7	1	2	5	14	1	1561640060	0.4427790642
1561640061	1.300003052	3	18	1	4	1	2	8	1	1	6	14	0	1561640061	0.558578968
1561640062	1.300014973	3	19	1	4	1	2	9	1	2	6	14	1	1561640063	0.6088190079
1561640064	1.299971104	3	20	1	4	1	2	10	2	2	6	14	1	1561640064	0.5419039726
1561640065	1.299993038	3	21	1	4	1	2	11	1	2	5	14	1	1561640065	0.5251097679
1561640066	1.299995899	3	22	1	4	1	2	12	2	2	6	14	0	1561640067	0.6169788837
1561640067	1.300052166	3	23	1	4	1	2	13	1	1	6	14	1	1561640068	0.6418230534
1561640069	1.299990892	3	24	1	4	1	2	14	2	2	6	14	1	1561640069	0.6677110195
1561640070	1.300084829	3	25	1	4	1	2	15	2	1	7	14	0	1561640070	0.6835181713
1561640071	1.30005312	3	26	1	4	1	2	16	2	2	7	14	1	1561640072	0.6670219898
1561640073	1.300000906	3	27	1	4	1	2	17	1	1	7	14	1	1561640073	0.5917639732
1561640074	1.300092936	3	28	1	4	1	2	18	2	2	8	14	0	1561640074	0.5584719181
1561640075	1.300002813	3	29	1	4	1	2	19	1	2	8	14	1	1561640076	0.6000440121
1561640077	1.300006866	3	30	1	4	1	2	20	1	2	8	14	1	1561640077	0.550112009
1561640078	1.300024033	3	31	1	4	1	2	21	1	2	7	14	1	1561640078	0.5419487953
1561640079	1.300022125	3	32	1	4	1	2	22	2	2	7	14	1	1561640080	0.6752049923
1561640081	1.300000906	3	33	1	4	1	2	23	2	2	7	14	1	1561640081	0.6333498955
1561640082	1.300004005	3	34	1	4	1	2	24	1	2	6	14	1	1561640082	0.4834489822
1561640083	1.299992085	3	35	1	4	1	2	25	2	1	6	14	1	1561640084	0.3083319664
1561640084	1.299971104	3	36	1	4	1	2	26	1	1	6	14	1	1561640085	0.2416830063
1561640086	1.300054073	3	37	1	4	1	2	27	2	1	7	14	0	1561640086	0.3751039505
1561640087	1.299970865	3	38	1	4	1	2	28	1	2	7	14	1	1561640087	0.5001180172
1561640088	1.299998999	3	39	1	4	1	2	29	2	1	7	14	1	1561640089	0.6334581375
1561640090	1.299998045	3	40	1	4	1	2	30	1	1	6	14	1	1561640090	0.7166550159
1561640091	1.300028086	3	41	1	4	1	2	31	1	2	6	14	1	1561640091	0.766726017
1561640092	1.300027847	3	42	1	4	1	2	32	2	1	6	14	n/a	1561640093	n/a
1561640094	1.291306019	3	43	1	4	9	3	1	3	3	6	14	n/a	n/a	n/a
1561640095	1.291615009	3	44	1	4	9	3	2	3	3	6	14	n/a	n/a	n/a
1561640096	1.291612148	3	45	1	4	9	3	3	3	3	6	14	n/a	n/a	n/a
1561640098	1.291716099	3	46	1	4	9	3	4	3	3	6	14	n/a	n/a	n/a
1561640099	1.291673183	3	47	1	4	9	3	5	3	3	6	14	n/a	n/a	n/a
1561640100	1.291730881	3	48	1	4	9	3	6	3	3	6	14	n/a	n/a	n/a
1561640101	1.291701078	3	49	1	4	9	3	7	3	3	6	14	n/a	n/a	n/a
1561640103	1.291691065	3	50	1	4	9	3	8	3	3	6	14	n/a	n/a	n/a
1561640104	1.291765928	3	51	1	4	9	3	9	3	3	6	14	n/a	n/a	n/a
1561640105	1.291708946	3	52	1	4	9	3	10	3	3	6	14	n/a	n/a	n/a
1561640107	1.291702986	3	53	1	4	3	4	1	1	2	6	14	1	1561640107	0.6669168472
1561640108	1.300008059	3	54	1	4	3	4	2	2	1	5	14	1	1561640108	0.5833261013
1561640109	1.299968004	3	55	1	4	3	4	3	1	1	5	14	1	1561640110	0.6084651947
1561640111	1.300062895	3	56	1	4	3	4	4	2	2	5	14	1	1561640111	0.8750550747
1561640112	1.299998045	3	57	1	4	3	4	5	1	2	4	14	1	1561640112	0.6417088509
1561640113	1.316666126	3	58	1	4	3	4	6	2	1	4	14	1	1561640114	0.7584819794
1561640115	1.299941063	3	59	1	4	3	4	7	2	2	5	14	0	1561640115	0.5751860142
1561640116	1.300004005	3	60	1	4	3	4	8	1	1	5	14	1	1561640116	0.5334889889
1561640117	1.30000186	3	61	1	4	3	4	9	2	1	6	14	0	1561640117	0.5250639915
1561640118	1.299999952	3	62	1	4	3	4	10	2	1	7	14	0	1561640119	0.6167159081
1561640120	1.299993992	3	63	1	4	3	4	11	1	2	7	14	1	1561640120	0.5002019405
1561640121	1.299998999	3	64	1	4	3	4	12	1	2	7	14	1	1561640121	0.4917049408
1561640122	1.299998999	3	65	1	4	3	4	13	2	2	6	14	1	1561640123	0.4667208195
1561640124	1.299978971	3	66	1	4	3	4	14	2	2	6	14	1	1561640124	0.4417290688
1561640125	1.300009966	3	67	1	4	3	4	15	2	1	6	14	1	1561640125	0.4751019478
1561640126	1.299961805	3	68	1	4	3	4	16	2	1	7	14	0	1561640127	0.3667829037
1561640128	1.29995513	3	69	1	4	3	4	17	2	2	8	14	0	1561640128	0.5418000221
1561640129	1.300004959	3	70	1	4	3	4	18	2	2	8	14	1	1561640129	0.3417170048
1561640130	1.291672945	3	71	1	4	9	5	1	3	3	8	14	n/a	n/a	n/a
1561640132	1.291601896	3	72	1	4	9	5	2	3	3	8	14	n/a	n/a	n/a
1561640133	1.291619062	3	73	1	4	9	5	3	3	3	8	14	n/a	n/a	n/a
1561640134	1.291579008	3	74	1	4	9	5	4	3	3	8	14	n/a	n/a	n/a
1561640135	1.291689873	3	75	1	4	9	5	5	3	3	8	14	n/a	n/a	n/a
1561640137	1.291673899	3	76	1	4	9	5	6	3	3	8	14	n/a	n/a	n/a
1561640138	1.291662931	3	77	1	4	9	5	7	3	3	8	14	n/a	n/a	n/a
1561640139	1.291643858	3	78	1	4	9	5	8	3	3	8	14	n/a	n/a	n/a
1561640141	1.291582823	3	79	1	4	9	5	9	3	3	8	14	n/a	n/a	n/a
1561640142	1.291642904	3	80	1	4	9	5	10	3	3	8	14	n/a	n/a	n/a
1561640143	1.300034046	3	81	1	4	5	6	1	2	2	8	14	1	1561640144	0.6754491329
1561640145	1.30000186	3	82	1	4	5	6	2	2	1	7	14	1	1561640145	0.5251851082
1561640146	1.300069094	3	83	1	4	5	6	3	1	2	7	14	1	1561640146	0.5668029785
1561640147	1.299998999	3	84	1	4	5	6	4	2	2	7	14	1	1561640148	0.8334629536
1561640148	1.291702986	3	85	1	4	5	6	5	1	2	6	14	1	1561640149	0.7251930237
1561640150	1.30000186	3	86	1	4	5	6	6	1	2	6	14	1	1561640150	0.6418309212
1561640151	1.308290958	3	87	1	4	5	6	7	2	1	7	14	0	1561640151	0.5916359425
1561640152	1.299960136	3	88	1	4	5	6	8	2	1	7	14	1	1561640153	0.5751080513
1561640154	1.299989939	3	89	1	4	5	6	9	1	2	7	14	1	1561640154	0.641780138
1561640155	1.300001144	3	90	1	4	5	6	10	2	2	6	14	1	1561640155	0.5333960056
1561640156	1.299965858	3	91	1	4	5	6	11	2	2	6	14	1	1561640157	0.5166771412
1561640158	1.300039053	3	92	1	4	5	6	12	1	1	7	14	0	1561640158	0.5419719219
1561640159	1.291754007	3	93	1	4	5	6	13	2	1	7	14	1	1561640159	0.5917370319
1561640160	1.300098896	3	94	1	4	5	6	14	2	1	7	14	1	1561640161	0.7334189415
1561640162	1.299993992	3	95	1	4	5	6	15	1	1	6	14	1	1561640162	0.5668940544
1561640163	1.291719913	3	96	1	4	5	6	16	1	2	6	14	1	1561640163	0.6584730148
1561640164	1.299987078	3	97	1	4	5	6	17	1	2	6	14	1	1561640164	0.6668169498
1561640165	1.3000319	3	98	1	4	5	6	18	1	1	5	14	1	1561640166	0.7334170341
1561640167	1.2999928	3	99	1	4	5	6	19	2	2	5	14	1	1561640167	0.6168000698
1561640168	1.299965143	3	100	1	4	5	6	20	2	1	5	14	1	1561640168	0.5251832008
1561640169	1.291770935	3	101	1	4	5	6	21	2	2	4	14	1	1561640170	0.5917699337
1561640171	1.29994297	3	102	1	4	5	6	22	2	2	4	14	1	1561640171	0.5502181053
1561640172	1.308330059	3	103	1	4	5	6	23	1	2	4	14	1	1561640172	0.6334781647
1561640173	1.308350801	3	104	1	4	5	6	24	2	2	3	14	1	1561640174	0.550080061
1561640175	1.299964905	3	105	1	4	5	6	25	2	2	3	14	1	1561640175	0.6167049408
1561640176	1.300001144	3	106	1	4	5	6	26	2	1	4	14	0	1561640176	0.3583760262
1561640177	1.300019026	3	107	1	4	5	6	27	2	1	4	14	1	1561640178	0.3166861534
1561640179	1.299995184	3	108	1	4	5	6	28	2	1	5	14	0	1561640179	0.3418371677
1561640180	1.299977064	3	109	1	4	5	6	29	2	2	5	14	1	1561640180	0.4502029419
1561640181	1.299956083	3	110	1	4	5	6	30	2	2	6	14	0	1561640182	0.4001328945
1561640182	1.299995899	3	111	1	4	5	6	31	2	2	6	14	1	1561640183	0.4333620071
1561640184	1.299975157	3	112	1	4	5	6	32	2	2	7	14	0	1561640184	0.4833989143
1561640185	1.291746855	3	113	1	4	9	7	1	3	3	7	14	n/a	n/a	n/a
1561640186	1.291734934	3	114	1	4	9	7	2	3	3	7	14	n/a	n/a	n/a
1561640188	1.291632891	3	115	1	4	9	7	3	3	3	7	14	n/a	n/a	n/a
1561640189	1.291666031	3	116	1	4	9	7	4	3	3	7	14	n/a	n/a	n/a
1561640190	1.29166007	3	117	1	4	9	7	5	3	3	7	14	n/a	n/a	n/a
1561640192	1.291646004	3	118	1	4	9	7	6	3	3	7	14	n/a	n/a	n/a
1561640193	1.291725874	3	119	1	4	9	7	7	3	3	7	14	n/a	n/a	n/a
1561640194	1.291688919	3	120	1	4	9	7	8	3	3	7	14	n/a	n/a	n/a
1561640196	1.291671038	3	121	1	4	9	7	9	3	3	7	14	n/a	n/a	n/a
1561640197	1.291661024	3	122	1	4	9	7	10	3	3	7	14	n/a	n/a	n/a
1561640198	1.300014973	3	123	1	4	7	8	1	1	2	7	14	1	1561640198	0.4417829514
1561640199	1.300087929	3	124	1	4	7	8	2	1	1	8	14	0	1561640200	0.466835022
1561640201	1.300015926	3	125	1	4	7	8	3	1	1	8	14	1	1561640201	0.4668018818
1561640202	1.308303833	3	126	1	4	7	8	4	2	1	9	14	0	1561640202	0.5501978397
1561640203	1.316622019	3	127	1	4	7	8	5	2	1	9	14	1	1561640204	0.4083940983
1561640205	1.316748142	3	128	1	4	7	8	6	1	2	10	14	0	1561640205	0.3750860691
1561640206	1.316745996	3	129	1	4	7	8	7	2	1	11	14	0	1561640206	0.3584439754
1561640207	1.308348894	3	130	1	4	7	8	8	1	1	11	14	1	1561640208	0.6917750835
1561640209	1.299977064	3	131	1	4	7	8	9	2	1	11	14	1	1561640209	0.633327961
1561640210	1.299957991	3	132	1	4	7	8	10	1	2	10	14	1	1561640210	0.6583909988
1561640211	1.299997091	3	133	1	4	7	8	11	1	2	10	14	1	1561640212	0.5750200748
1561640213	1.299999952	3	134	1	4	7	8	12	2	2	10	14	1	1561640213	0.5001468658
1561640214	1.30005002	3	135	1	4	7	8	13	2	1	9	14	1	1561640214	0.5918421745
1561640215	1.300107002	3	136	1	4	7	8	14	1	1	9	14	1	1561640216	0.7251200676
1561640216	1.299968958	3	137	1	4	7	8	15	1	1	9	14	1	1561640217	0.5334279537
1561640218	1.300000906	3	138	1	4	7	8	16	2	2	8	14	1	1561640218	0.6501309872
1561640219	1.300028801	3	139	1	4	7	8	17	1	1	8	14	1	1561640219	0.7084209919
1561640220	1.300127983	3	140	1	4	7	8	18	2	1	9	14	0	1561640221	0.7085042
1561640222	1.291782856	3	141	1	4	9	9	1	3	3	9	14	n/a	n/a	n/a
1561640223	1.291643858	3	142	1	4	9	9	2	3	3	9	14	n/a	n/a	n/a
1561640224	1.291666031	3	143	1	4	9	9	3	3	3	9	14	n/a	n/a	n/a
1561640226	1.291656017	3	144	1	4	9	9	4	3	3	9	14	n/a	n/a	n/a
1561640227	1.291690111	3	145	1	4	9	9	5	3	3	9	14	n/a	n/a	n/a
1561640228	1.291668892	3	146	1	4	9	9	6	3	3	9	14	n/a	n/a	n/a
1561640230	1.291661978	3	147	1	4	9	9	7	3	3	9	14	n/a	n/a	n/a
1561640231	1.291687012	3	148	1	4	9	9	8	3	3	9	14	n/a	n/a	n/a
1561640232	1.291673183	3	149	1	4	9	9	9	3	3	9	14	n/a	n/a	n/a
1561640233	1.29166007	3	150	1	4	9	9	10	3	3	9	14	n/a	n/a	n/a
