onset	duration	run_number	trial_number	att_task	fix_direction	bar_direction	bar_period	bar_step	fix_noise_ori	stim_noise_ori	fix_stair_val	stim_stair_val	response_val	probe_time	reaction_time
1561641799	1.291384935	10	1	2	2	9	1	1	3	3	7	10	n/a	n/a	n/a
1561641800	1.291781187	10	2	2	2	9	1	2	3	3	7	10	n/a	n/a	n/a
1561641801	1.291630983	10	3	2	2	9	1	3	3	3	7	10	n/a	n/a	n/a
1561641802	1.29163599	10	4	2	2	9	1	4	3	3	7	10	n/a	n/a	n/a
1561641804	1.291628838	10	5	2	2	9	1	5	3	3	7	10	n/a	n/a	n/a
1561641805	1.291675091	10	6	2	2	9	1	6	3	3	7	10	n/a	n/a	n/a
1561641806	1.291726112	10	7	2	2	9	1	7	3	3	7	10	n/a	n/a	n/a
1561641808	1.291697979	10	8	2	2	9	1	8	3	3	7	10	n/a	n/a	n/a
1561641809	1.291607857	10	9	2	2	9	1	9	3	3	7	10	n/a	n/a	n/a
1561641810	1.291694164	10	10	2	2	9	1	10	3	3	7	10	n/a	n/a	n/a
1561641812	1.298881054	10	11	2	2	1	2	1	2	2	7	10	1	1561641812	0.9503149986
1561641813	1.291738987	10	12	2	2	1	2	2	1	1	7	9	1	1561641813	0.6584918499
1561641814	1.299998999	10	13	2	2	1	2	3	2	1	7	9	1	1561641814	0.6585409641
1561641815	1.291632175	10	14	2	2	1	2	4	2	1	7	8	1	1561641816	0.6584098339
1561641817	1.299988985	10	15	2	2	1	2	5	1	1	7	8	1	1561641817	0.6663739681
1561641818	1.291706085	10	16	2	2	1	2	6	1	1	7	8	1	1561641818	0.5843939781
1561641819	1.300071001	10	17	2	2	1	2	7	2	1	7	7	1	1561641820	0.4754209518
1561641821	1.299932003	10	18	2	2	1	2	8	1	2	7	7	1	1561641821	0.5085990429
1561641822	1.291690111	10	19	2	2	1	2	9	1	1	7	7	1	1561641822	0.5584948063
1561641823	1.291568041	10	20	2	2	1	2	10	1	2	7	8	0	1561641824	0.6503000259
1561641825	1.291763067	10	21	2	2	1	2	11	2	2	7	8	1	1561641825	0.4668819904
1561641826	1.291699171	10	22	2	2	1	2	12	2	2	7	9	0	1561641826	0.4502220154
1561641827	1.291669846	10	23	2	2	1	2	13	1	2	7	10	0	1561641828	0.6252348423
1561641828	1.291677952	10	24	2	2	1	2	14	1	2	7	11	0	1561641829	0.5836100578
1561641830	1.291721106	10	25	2	2	1	2	15	2	1	7	11	1	1561641830	0.7417740822
1561641831	1.300086975	10	26	2	2	1	2	16	1	2	7	12	0	1561641831	0.7005360126
1561641832	1.291661024	10	27	2	2	1	2	17	2	1	7	12	1	1561641833	0.683339119
1561641834	1.29172802	10	28	2	2	1	2	18	2	2	7	12	1	1561641834	0.7668809891
1561641835	1.291436195	10	29	2	2	9	3	1	3	3	7	12	n/a	n/a	n/a
1561641836	1.291584015	10	30	2	2	9	3	2	3	3	7	12	n/a	n/a	n/a
1561641838	1.291743994	10	31	2	2	9	3	3	3	3	7	12	n/a	n/a	n/a
1561641839	1.29172802	10	32	2	2	9	3	4	3	3	7	12	n/a	n/a	n/a
1561641840	1.291691065	10	33	2	2	9	3	5	3	3	7	12	n/a	n/a	n/a
1561641841	1.29171896	10	34	2	2	9	3	6	3	3	7	12	n/a	n/a	n/a
1561641843	1.291686058	10	35	2	2	9	3	7	3	3	7	12	n/a	n/a	n/a
1561641844	1.291733027	10	36	2	2	9	3	8	3	3	7	12	n/a	n/a	n/a
1561641845	1.29163909	10	37	2	2	9	3	9	3	3	7	12	n/a	n/a	n/a
1561641847	1.291634798	10	38	2	2	9	3	10	3	3	7	12	n/a	n/a	n/a
1561641848	1.291426182	10	39	2	2	5	4	1	2	2	7	11	1	1561641848	0.6675429344
1561641849	1.291665077	10	40	2	2	5	4	2	2	1	7	12	0	1561641850	0.6420249939
1561641851	1.291675091	10	41	2	2	5	4	3	2	2	7	13	0	1561641851	0.6083960533
1561641852	1.299978018	10	42	2	2	5	4	4	2	1	7	13	1	1561641852	0.583368063
1561641853	1.291694164	10	43	2	2	5	4	5	2	2	7	13	1	1561641854	0.7837119102
1561641854	1.2917068	10	44	2	2	5	4	6	1	1	7	12	1	1561641855	0.5166540146
1561641856	1.299998999	10	45	2	2	5	4	7	2	2	7	13	0	1561641856	0.4750168324
1561641857	1.291774035	10	46	2	2	5	4	8	1	2	7	13	1	1561641857	0.6167800426
1561641858	1.291731834	10	47	2	2	5	4	9	1	1	7	13	1	1561641859	0.5333759785
1561641860	1.291785002	10	48	2	2	5	4	10	1	2	7	14	0	1561641860	0.5750358105
1561641861	1.300108194	10	49	2	2	5	4	11	2	2	7	14	1	1561641861	0.4834260941
1561641862	1.299897909	10	50	2	2	5	4	12	1	2	7	14	1	1561641863	0.558480978
1561641864	1.291805983	10	51	2	2	5	4	13	2	2	7	13	1	1561641864	0.4751169682
1561641865	1.300068855	10	52	2	2	5	4	14	1	2	7	13	1	1561641865	0.5167481899
1561641866	1.308371067	10	53	2	2	5	4	15	1	1	7	14	0	1561641867	0.5167741776
1561641868	1.300006866	10	54	2	2	5	4	16	1	1	7	15	0	1561641868	0.6085100174
1561641869	1.291657925	10	55	2	2	5	4	17	2	2	7	15	1	1561641869	0.5333819389
1561641870	1.291631937	10	56	2	2	5	4	18	1	2	7	15	1	1561641870	0.6250329018
1561641871	1.291728973	10	57	2	2	9	5	1	3	3	7	15	n/a	n/a	n/a
1561641873	1.291702032	10	58	2	2	9	5	2	3	3	7	15	n/a	n/a	n/a
1561641874	1.291616917	10	59	2	2	9	5	3	3	3	7	15	n/a	n/a	n/a
1561641875	1.291678905	10	60	2	2	9	5	4	3	3	7	15	n/a	n/a	n/a
1561641877	1.291589022	10	61	2	2	9	5	5	3	3	7	15	n/a	n/a	n/a
1561641878	1.291642904	10	62	2	2	9	5	6	3	3	7	15	n/a	n/a	n/a
1561641879	1.291690111	10	63	2	2	9	5	7	3	3	7	15	n/a	n/a	n/a
1561641881	1.291681051	10	64	2	2	9	5	8	3	3	7	15	n/a	n/a	n/a
1561641882	1.291594028	10	65	2	2	9	5	9	3	3	7	15	n/a	n/a	n/a
1561641883	1.291754961	10	66	2	2	9	5	10	3	3	7	15	n/a	n/a	n/a
1561641884	1.291671991	10	67	2	2	1	6	1	2	1	7	14	1	1561641885	0.558839798
1561641886	1.291648149	10	68	2	2	1	6	2	1	2	7	14	1	1561641886	0.6584708691
1561641887	1.291661024	10	69	2	2	1	6	3	2	2	7	15	0	1561641887	0.6835310459
1561641888	1.299969196	10	70	2	2	1	6	4	1	1	7	15	1	1561641889	0.5334410667
1561641890	1.291647196	10	71	2	2	1	6	5	2	1	7	15	1	1561641890	0.550041914
1561641891	1.300094843	10	72	2	2	1	6	6	1	2	7	14	1	1561641891	0.6417639256
1561641892	1.299994946	10	73	2	2	1	6	7	2	1	7	14	1	1561641893	0.6917188168
1561641894	1.291661978	10	74	2	2	1	6	8	2	2	7	15	0	1561641894	0.6500818729
1561641895	1.291701078	10	75	2	2	1	6	9	2	1	7	15	1	1561641895	0.5083489418
1561641896	1.300036907	10	76	2	2	1	6	10	2	2	7	15	1	1561641897	0.5668098927
1561641898	1.300010204	10	77	2	2	1	6	11	2	1	7	14	1	1561641898	0.6749970913
1561641899	1.300127983	10	78	2	2	1	6	12	2	1	7	14	1	1561641899	0.73350811
1561641900	1.300139904	10	79	2	2	1	6	13	1	2	7	14	1	1561641900	0.6333799362
1561641901	1.300099134	10	80	2	2	1	6	14	2	2	7	15	0	1561641902	0.6251580715
1561641903	1.300014973	10	81	2	2	1	6	15	1	1	7	15	1	1561641903	0.5501289368
1561641904	1.291661024	10	82	2	2	1	6	16	2	2	7	15	0	1561641904	0.7083618641
1561641905	1.300004005	10	83	2	2	1	6	17	2	1	7	15	1	1561641906	0.5501160622
1561641907	1.291721821	10	84	2	2	1	6	18	1	1	7	15	1	1561641907	0.6167888641
1561641908	1.29162097	10	85	2	2	9	7	1	3	3	7	15	n/a	n/a	n/a
1561641909	1.291621923	10	86	2	2	9	7	2	3	3	7	15	n/a	n/a	n/a
1561641911	1.291633129	10	87	2	2	9	7	3	3	3	7	15	n/a	n/a	n/a
1561641912	1.291680098	10	88	2	2	9	7	4	3	3	7	15	n/a	n/a	n/a
1561641913	1.291652918	10	89	2	2	9	7	5	3	3	7	15	n/a	n/a	n/a
1561641914	1.29163003	10	90	2	2	9	7	6	3	3	7	15	n/a	n/a	n/a
1561641916	1.291625977	10	91	2	2	9	7	7	3	3	7	15	n/a	n/a	n/a
1561641917	1.291759014	10	92	2	2	9	7	8	3	3	7	15	n/a	n/a	n/a
1561641918	1.291697025	10	93	2	2	9	7	9	3	3	7	15	n/a	n/a	n/a
1561641920	1.291688919	10	94	2	2	9	7	10	3	3	7	15	n/a	n/a	n/a
1561641921	1.291903019	10	95	2	2	5	8	1	1	2	7	15	n/a	1561641921	n/a
1561641922	1.291576147	10	96	2	2	5	8	2	2	1	7	14	1	1561641923	0.7501060963
1561641924	1.300067902	10	97	2	2	5	8	3	1	2	7	14	1	1561641924	0.691699028
1561641925	1.291751862	10	98	2	2	5	8	4	2	1	7	14	1	1561641925	0.6666698456
1561641926	1.291661978	10	99	2	2	5	8	5	1	2	7	13	1	1561641927	0.7167499065
1561641927	1.291662931	10	100	2	2	5	8	6	1	2	7	14	0	1561641928	0.616765976
1561641929	1.300021887	10	101	2	2	5	8	7	1	2	7	15	0	1561641929	0.5833420753
1561641930	1.30004096	10	102	2	2	5	8	8	1	2	7	15	1	1561641930	0.5417940617
1561641931	1.299947977	10	103	2	2	5	8	9	1	1	7	15	1	1561641932	0.5418381691
1561641933	1.291723967	10	104	2	2	5	8	10	2	1	7	14	1	1561641933	0.6168208122
1561641934	1.291644096	10	105	2	2	5	8	11	2	1	7	14	1	1561641934	0.5083620548
1561641935	1.291666985	10	106	2	2	5	8	12	2	1	7	14	1	1561641936	0.6584618092
1561641937	1.300000191	10	107	2	2	5	8	13	1	2	7	15	0	1561641937	0.5002000332
1561641938	1.299982071	10	108	2	2	5	8	14	1	1	7	15	1	1561641938	0.5666868687
1561641939	1.291642904	10	109	2	2	5	8	15	2	1	7	15	1	1561641940	0.5417671204
1561641941	1.291712046	10	110	2	2	5	8	16	1	1	7	15	0	1561641941	0.5417900085
1561641942	1.291718006	10	111	2	2	5	8	17	1	2	7	15	1	1561641942	0.6167008877
1561641943	1.291625023	10	112	2	2	5	8	18	1	2	7	15	0	1561641943	0.5667669773
1561641944	1.291666031	10	113	2	2	9	9	1	3	3	7	15	n/a	n/a	n/a
1561641946	1.29164505	10	114	2	2	9	9	2	3	3	7	15	n/a	n/a	n/a
1561641947	1.291688919	10	115	2	2	9	9	3	3	3	7	15	n/a	n/a	n/a
1561641948	1.291759014	10	116	2	2	9	9	4	3	3	7	15	n/a	n/a	n/a
1561641950	1.291672945	10	117	2	2	9	9	5	3	3	7	15	n/a	n/a	n/a
1561641951	1.291637897	10	118	2	2	9	9	6	3	3	7	15	n/a	n/a	n/a
1561641952	1.291765928	10	119	2	2	9	9	7	3	3	7	15	n/a	n/a	n/a
1561641954	1.291667938	10	120	2	2	9	9	8	3	3	7	15	n/a	n/a	n/a
1561641955	1.291687012	10	121	2	2	9	9	9	3	3	7	15	n/a	n/a	n/a
1561641956	1.291666031	10	122	2	2	9	9	10	3	3	7	15	n/a	n/a	n/a
