onset	duration	run_number	trial_number	att_task	fix_direction	bar_direction	bar_period	bar_step	fix_noise_ori	stim_noise_ori	fix_stair_val	stim_stair_val	response_val	probe_time	reaction_time
1561641549	1.290982962	9	1	1	2	9	1	1	3	3	6	10	n/a	n/a	n/a
1561641550	1.29175806	9	2	1	2	9	1	2	3	3	6	10	n/a	n/a	n/a
1561641552	1.291834116	9	3	1	2	9	1	3	3	3	6	10	n/a	n/a	n/a
1561641553	1.291790009	9	4	1	2	9	1	4	3	3	6	10	n/a	n/a	n/a
1561641554	1.291657925	9	5	1	2	9	1	5	3	3	6	10	n/a	n/a	n/a
1561641556	1.291676998	9	6	1	2	9	1	6	3	3	6	10	n/a	n/a	n/a
1561641557	1.291694164	9	7	1	2	9	1	7	3	3	6	10	n/a	n/a	n/a
1561641558	1.29163599	9	8	1	2	9	1	8	3	3	6	10	n/a	n/a	n/a
1561641559	1.291629076	9	9	1	2	9	1	9	3	3	6	10	n/a	n/a	n/a
1561641561	1.291721106	9	10	1	2	9	1	10	3	3	6	10	n/a	n/a	n/a
1561641562	1.307350159	9	11	1	2	1	2	1	1	2	6	10	1	1561641562	0.6086950302
1561641563	1.299936056	9	12	1	2	1	2	2	1	1	7	10	0	1561641564	0.5836331844
1561641565	1.29175806	9	13	1	2	1	2	3	2	1	7	10	1	1561641565	0.5501232147
1561641566	1.291692019	9	14	1	2	1	2	4	1	2	7	10	1	1561641566	0.7751019001
1561641567	1.299937963	9	15	1	2	1	2	5	1	2	6	10	1	1561641568	0.5414030552
1561641569	1.299983978	9	16	1	2	1	2	6	2	1	7	10	0	1561641569	0.5167548656
1561641570	1.300084114	9	17	1	2	1	2	7	1	2	8	10	0	1561641570	0.4502549171
1561641571	1.299998045	9	18	1	2	1	2	8	1	1	8	10	1	1561641572	0.4843199253
1561641573	1.300078869	9	19	1	2	1	2	9	1	1	8	10	1	1561641573	0.4587240219
1561641574	1.300000906	9	20	1	2	1	2	10	2	1	7	10	1	1561641574	0.6502389908
1561641575	1.300019979	9	21	1	2	1	2	11	2	1	7	10	1	1561641575	0.6511001587
1561641576	1.300022125	9	22	1	2	1	2	12	1	2	7	10	1	1561641577	0.5170331001
1561641578	1.300116062	9	23	1	2	1	2	13	2	2	6	10	1	1561641578	0.6167280674
1561641579	1.300088882	9	24	1	2	1	2	14	1	2	6	10	1	1561641579	0.4833829403
1561641580	1.299983978	9	25	1	2	1	2	15	2	2	6	10	1	1561641581	0.5419971943
1561641582	1.291702986	9	26	1	2	1	2	16	2	2	5	10	1	1561641582	0.63352108
1561641583	1.29162097	9	27	1	2	1	2	17	1	1	5	10	1	1561641583	0.6251418591
1561641584	1.291679144	9	28	1	2	1	2	18	2	1	5	10	1	1561641585	0.6500880718
1561641586	1.291418791	9	29	1	2	9	3	1	3	3	5	10	n/a	n/a	n/a
1561641587	1.291648149	9	30	1	2	9	3	2	3	3	5	10	n/a	n/a	n/a
1561641588	1.291687012	9	31	1	2	9	3	3	3	3	5	10	n/a	n/a	n/a
1561641589	1.291616917	9	32	1	2	9	3	4	3	3	5	10	n/a	n/a	n/a
1561641591	1.291749954	9	33	1	2	9	3	5	3	3	5	10	n/a	n/a	n/a
1561641592	1.291637897	9	34	1	2	9	3	6	3	3	5	10	n/a	n/a	n/a
1561641593	1.291669846	9	35	1	2	9	3	7	3	3	5	10	n/a	n/a	n/a
1561641595	1.291671991	9	36	1	2	9	3	8	3	3	5	10	n/a	n/a	n/a
1561641596	1.291681051	9	37	1	2	9	3	9	3	3	5	10	n/a	n/a	n/a
1561641597	1.291785955	9	38	1	2	9	3	10	3	3	5	10	n/a	n/a	n/a
1561641599	1.29975009	9	39	1	2	5	4	1	1	2	4	10	1	1561641599	0.6336541176
1561641600	1.300023079	9	40	1	2	5	4	2	2	2	4	10	1	1561641600	0.6834011078
1561641601	1.300094128	9	41	1	2	5	4	3	2	2	4	10	1	1561641602	0.5084431171
1561641603	1.300035	9	42	1	2	5	4	4	1	2	5	10	0	1561641603	0.6086051464
1561641604	1.300084829	9	43	1	2	5	4	5	1	1	5	10	1	1561641604	0.5000510216
1561641605	1.299992085	9	44	1	2	5	4	6	2	1	5	10	1	1561641605	0.4499909878
1561641606	1.300024033	9	45	1	2	5	4	7	1	2	6	10	0	1561641607	0.5251610279
1561641608	1.299999952	9	46	1	2	5	4	8	2	1	7	10	0	1561641608	0.5253961086
1561641609	1.300104856	9	47	1	2	5	4	9	2	2	7	10	1	1561641609	0.5667669773
1561641610	1.30004406	9	48	1	2	5	4	10	2	2	7	10	1	1561641611	0.7000851631
1561641612	1.299998999	9	49	1	2	5	4	11	2	2	6	10	1	1561641612	0.4751141071
1561641613	1.299985886	9	50	1	2	5	4	12	1	2	6	10	1	1561641613	0.5501461029
1561641614	1.291685104	9	51	1	2	5	4	13	2	1	6	10	1	1561641615	0.5584449768
1561641616	1.300058126	9	52	1	2	5	4	14	1	1	5	10	1	1561641616	0.5584671497
1561641617	1.299975157	9	53	1	2	5	4	15	1	2	5	10	1	1561641617	0.6167600155
1561641618	1.291702032	9	54	1	2	5	4	16	2	1	5	10	1	1561641619	0.6000909805
1561641620	1.299962997	9	55	1	2	5	4	17	1	2	4	10	1	1561641620	0.5503160954
1561641621	1.291779995	9	56	1	2	5	4	18	1	2	4	10	1	1561641621	0.4918470383
1561641622	1.291714191	9	57	1	2	9	5	1	3	3	4	10	n/a	n/a	n/a
1561641623	1.291666985	9	58	1	2	9	5	2	3	3	4	10	n/a	n/a	n/a
1561641625	1.291666031	9	59	1	2	9	5	3	3	3	4	10	n/a	n/a	n/a
1561641626	1.291604042	9	60	1	2	9	5	4	3	3	4	10	n/a	n/a	n/a
1561641627	1.291775942	9	61	1	2	9	5	5	3	3	4	10	n/a	n/a	n/a
1561641629	1.291661978	9	62	1	2	9	5	6	3	3	4	10	n/a	n/a	n/a
1561641630	1.291591167	9	63	1	2	9	5	7	3	3	4	10	n/a	n/a	n/a
1561641631	1.291665077	9	64	1	2	9	5	8	3	3	4	10	n/a	n/a	n/a
1561641633	1.29167819	9	65	1	2	9	5	9	3	3	4	10	n/a	n/a	n/a
1561641634	1.291747093	9	66	1	2	9	5	10	3	3	4	10	n/a	n/a	n/a
1561641635	1.291766167	9	67	1	2	1	6	1	2	2	4	10	1	1561641635	0.7087721825
1561641636	1.299916983	9	68	1	2	1	6	2	1	2	3	10	1	1561641637	0.5501308441
1561641638	1.300023794	9	69	1	2	1	6	3	2	1	4	10	0	1561641638	0.716755867
1561641639	1.299978971	9	70	1	2	1	6	4	2	2	4	10	1	1561641639	0.583329916
1561641640	1.300029039	9	71	1	2	1	6	5	1	2	4	10	1	1561641641	0.4916880131
1561641642	1.29163003	9	72	1	2	1	6	6	1	1	5	10	0	1561641642	0.5420589447
1561641643	1.291681051	9	73	1	2	1	6	7	2	2	6	10	0	1561641643	0.6418118477
1561641644	1.299977064	9	74	1	2	1	6	8	1	2	7	10	0	1561641645	0.5084631443
1561641646	1.300029039	9	75	1	2	1	6	9	1	1	7	10	1	1561641646	0.4417068958
1561641647	1.299990892	9	76	1	2	1	6	10	1	1	7	10	1	1561641647	0.4334089756
1561641648	1.291692019	9	77	1	2	1	6	11	2	1	6	10	1	1561641649	0.3833680153
1561641650	1.291754961	9	78	1	2	1	6	12	1	2	6	10	1	1561641650	0.3500199318
1561641651	1.300006866	9	79	1	2	1	6	13	1	2	7	10	0	1561641651	0.3000810146
1561641652	1.300041199	9	80	1	2	1	6	14	1	2	7	10	1	1561641652	0.441699028
1561641653	1.291671991	9	81	1	2	1	6	15	2	1	7	10	1	1561641654	0.6251120567
1561641655	1.291647911	9	82	1	2	1	6	16	1	1	8	10	0	1561641655	0.5251719952
1561641656	1.291687012	9	83	1	2	1	6	17	1	1	8	10	1	1561641656	0.483424902
1561641657	1.299992085	9	84	1	2	1	6	18	2	2	8	10	1	1561641658	0.5917019844
1561641659	1.291642904	9	85	1	2	9	7	1	3	3	8	10	n/a	n/a	n/a
1561641660	1.291668892	9	86	1	2	9	7	2	3	3	8	10	n/a	n/a	n/a
1561641661	1.291737795	9	87	1	2	9	7	3	3	3	8	10	n/a	n/a	n/a
1561641663	1.291660786	9	88	1	2	9	7	4	3	3	8	10	n/a	n/a	n/a
1561641664	1.291629076	9	89	1	2	9	7	5	3	3	8	10	n/a	n/a	n/a
1561641665	1.291762114	9	90	1	2	9	7	6	3	3	8	10	n/a	n/a	n/a
1561641666	1.291728973	9	91	1	2	9	7	7	3	3	8	10	n/a	n/a	n/a
1561641668	1.291631937	9	92	1	2	9	7	8	3	3	8	10	n/a	n/a	n/a
1561641669	1.291692019	9	93	1	2	9	7	9	3	3	8	10	n/a	n/a	n/a
1561641670	1.291643143	9	94	1	2	9	7	10	3	3	8	10	n/a	n/a	n/a
1561641672	1.2917099	9	95	1	2	5	8	1	1	1	7	10	1	1561641672	0.5334010124
1561641673	1.300028801	9	96	1	2	5	8	2	1	2	7	10	1	1561641673	0.575026989
1561641674	1.300023079	9	97	1	2	5	8	3	2	1	7	10	1	1561641675	0.5583701134
1561641676	1.299973965	9	98	1	2	5	8	4	1	2	6	10	1	1561641676	0.5834369659
1561641677	1.300020933	9	99	1	2	5	8	5	1	1	6	10	1	1561641677	0.7084870338
1561641678	1.299947977	9	100	1	2	5	8	6	2	2	6	10	1	1561641679	0.6500599384
1561641679	1.291691065	9	101	1	2	5	8	7	1	1	5	10	1	1561641680	0.6667170525
1561641681	1.299998045	9	102	1	2	5	8	8	1	1	5	10	1	1561641681	0.5667231083
1561641682	1.299944878	9	103	1	2	5	8	9	2	1	5	10	1	1561641682	0.7167518139
1561641683	1.291790962	9	104	1	2	5	8	10	2	1	4	10	1	1561641684	0.6584370136
1561641685	1.300056934	9	105	1	2	5	8	11	1	2	4	10	1	1561641685	0.5750389099
1561641686	1.300037146	9	106	1	2	5	8	12	1	1	4	10	1	1561641686	0.6417770386
1561641687	1.300024033	9	107	1	2	5	8	13	2	2	5	10	0	1561641688	0.7836651802
1561641689	1.300057888	9	108	1	2	5	8	14	2	2	5	10	1	1561641689	0.5251970291
1561641690	1.300033808	9	109	1	2	5	8	15	2	1	6	10	0	1561641690	0.4584801197
1561641691	1.299962044	9	110	1	2	5	8	16	2	1	7	10	0	1561641692	0.5501158237
1561641693	1.291686058	9	111	1	2	5	8	17	2	1	7	10	1	1561641693	0.5250630379
1561641694	1.291668177	9	112	1	2	5	8	18	1	1	7	10	1	1561641694	0.500084877
1561641695	1.291687965	9	113	1	2	9	9	1	3	3	7	10	n/a	n/a	n/a
1561641696	1.291644096	9	114	1	2	9	9	2	3	3	7	10	n/a	n/a	n/a
1561641698	1.291687965	9	115	1	2	9	9	3	3	3	7	10	n/a	n/a	n/a
1561641699	1.291659832	9	116	1	2	9	9	4	3	3	7	10	n/a	n/a	n/a
1561641700	1.291638136	9	117	1	2	9	9	5	3	3	7	10	n/a	n/a	n/a
1561641702	1.291665792	9	118	1	2	9	9	6	3	3	7	10	n/a	n/a	n/a
1561641703	1.291716099	9	119	1	2	9	9	7	3	3	7	10	n/a	n/a	n/a
1561641704	1.291629076	9	120	1	2	9	9	8	3	3	7	10	n/a	n/a	n/a
1561641706	1.291779995	9	121	1	2	9	9	9	3	3	7	10	n/a	n/a	n/a
1561641707	1.291664839	9	122	1	2	9	9	10	3	3	7	10	n/a	n/a	n/a
