onset	duration	run_number	trial_number	att_task	fix_direction	bar_direction	bar_period	bar_step	fix_noise_ori	stim_noise_ori	fix_stair_val	stim_stair_val	response_val	probe_time	reaction_time
1559829363	1.291388035	3	1	1	4	9	1	1	3	3	3	6	n/a	n/a	n/a
1559829364	1.291789055	3	2	1	4	9	1	2	3	3	3	6	n/a	n/a	n/a
1559829365	1.291800022	3	3	1	4	9	1	3	3	3	3	6	n/a	n/a	n/a
1559829367	1.291672945	3	4	1	4	9	1	4	3	3	3	6	n/a	n/a	n/a
1559829368	1.291729927	3	5	1	4	9	1	5	3	3	3	6	n/a	n/a	n/a
1559829369	1.291725159	3	6	1	4	9	1	6	3	3	3	6	n/a	n/a	n/a
1559829370	1.291668892	3	7	1	4	9	1	7	3	3	3	6	n/a	n/a	n/a
1559829372	1.29166913	3	8	1	4	9	1	8	3	3	3	6	n/a	n/a	n/a
1559829373	1.291651964	3	9	1	4	9	1	9	3	3	3	6	n/a	n/a	n/a
1559829374	1.291673899	3	10	1	4	9	1	10	3	3	3	6	n/a	n/a	n/a
1559829376	1.307222843	3	11	1	4	1	2	1	1	1	4	6	0	1559829376	0.5503101349
1559829377	1.299996853	3	12	1	4	1	2	2	2	1	4	6	1	1559829377	0.7584760189
1559829378	1.299906969	3	13	1	4	1	2	3	2	2	4	6	0	1559829379	0.9500639439
1559829380	1.299997091	3	14	1	4	1	2	4	2	2	5	6	1	1559829380	0.7750310898
1559829381	1.299998045	3	15	1	4	1	2	5	1	2	5	6	1	1559829381	0.9164168835
1559829382	1.299994946	3	16	1	4	1	2	6	1	2	5	6	1	1559829383	0.9418280125
1559829384	1.299993992	3	17	1	4	1	2	7	1	1	4	6	n/a	1559829384	n/a
1559829385	1.30000782	3	18	1	4	1	2	8	2	2	4	6	1	1559829385	0.8086919785
1559829386	1.300001144	3	19	1	4	1	2	9	1	2	4	6	1	1559829387	0.8251969814
1559829387	1.300000906	3	20	1	4	1	2	10	2	2	3	6	1	1559829388	0.7927868366
1559829389	1.299999952	3	21	1	4	1	2	11	1	1	3	6	1	1559829389	0.7177300453
1559829390	1.299988985	3	22	1	4	1	2	12	1	1	3	6	1	1559829390	0.8169281483
1559829391	1.299947977	3	23	1	4	1	2	13	2	1	4	6	0	1559829392	0.8419880867
1559829393	1.299993038	3	24	1	4	1	2	14	2	2	4	6	1	1559829393	0.8336379528
1559829394	1.299990892	3	25	1	4	1	2	15	1	1	4	6	n/a	1559829394	n/a
1559829395	1.299954891	3	26	1	4	1	2	16	1	2	4	6	n/a	1559829396	n/a
1559829397	1.300060987	3	27	1	4	1	2	17	1	1	4	6	n/a	1559829397	n/a
1559829398	1.300045013	3	28	1	4	1	2	18	2	2	4	6	n/a	1559829398	n/a
1559829399	1.300065994	3	29	1	4	1	2	19	1	2	4	6	n/a	1559829400	n/a
1559829401	1.299950838	3	30	1	4	1	2	20	2	1	4	6	1	1559829401	0.9338669777
1559829402	1.291638851	3	31	1	4	1	2	21	2	1	3	6	1	1559829402	0.841796875
1559829403	1.299890995	3	32	1	4	1	2	22	1	2	3	6	1	1559829404	0.808535099
1559829404	1.300047159	3	33	1	4	1	2	23	1	1	3	6	1	1559829405	0.816724062
1559829406	1.299993992	3	34	1	4	1	2	24	1	2	4	6	0	1559829406	0.7835600376
1559829407	1.300003052	3	35	1	4	1	2	25	2	1	5	6	0	1559829407	0.8584458828
1559829408	1.300112963	3	36	1	4	1	2	26	1	2	5	6	1	1559829409	0.9001619816
1559829410	1.300063133	3	37	1	4	1	2	27	2	2	5	6	n/a	1559829410	n/a
1559829411	1.299998999	3	38	1	4	1	2	28	2	2	5	6	n/a	1559829411	n/a
1559829412	1.299990892	3	39	1	4	1	2	29	2	1	5	6	n/a	1559829413	n/a
1559829414	1.30015111	3	40	1	4	1	2	30	2	1	5	6	n/a	1559829414	n/a
1559829415	1.299993038	3	41	1	4	1	2	31	1	2	5	6	1	1559829415	0.9585030079
1559829416	1.300037146	3	42	1	4	1	2	32	2	2	5	6	n/a	1559829417	n/a
1559829418	1.291285992	3	43	1	4	9	3	1	3	3	5	6	n/a	n/a	n/a
1559829419	1.291466951	3	44	1	4	9	3	2	3	3	5	6	n/a	n/a	n/a
1559829420	1.291734934	3	45	1	4	9	3	3	3	3	5	6	n/a	n/a	n/a
1559829421	1.291789055	3	46	1	4	9	3	4	3	3	5	6	n/a	n/a	n/a
1559829423	1.291632891	3	47	1	4	9	3	5	3	3	5	6	n/a	n/a	n/a
1559829424	1.291610956	3	48	1	4	9	3	6	3	3	5	6	n/a	n/a	n/a
1559829425	1.291659117	3	49	1	4	9	3	7	3	3	5	6	n/a	n/a	n/a
1559829427	1.291696072	3	50	1	4	9	3	8	3	3	5	6	n/a	n/a	n/a
1559829428	1.291670084	3	51	1	4	9	3	9	3	3	5	6	n/a	n/a	n/a
1559829429	1.291665077	3	52	1	4	9	3	10	3	3	5	6	n/a	n/a	n/a
1559829431	1.300019026	3	53	1	4	3	4	1	2	1	4	6	1	1559829431	0.8170030117
1559829432	1.30000186	3	54	1	4	3	4	2	2	2	4	6	1	1559829432	0.8749940395
1559829433	1.299942017	3	55	1	4	3	4	3	2	2	5	6	0	1559829434	0.8335139751
1559829434	1.299986839	3	56	1	4	3	4	4	1	1	5	6	1	1559829435	0.8250691891
1559829436	1.300006866	3	57	1	4	3	4	5	1	1	5	6	1	1559829436	0.8417999744
1559829437	1.300026894	3	58	1	4	3	4	6	1	2	4	6	1	1559829437	0.7417378426
1559829438	1.300057173	3	59	1	4	3	4	7	2	2	5	6	0	1559829439	0.7419781685
1559829440	1.30009985	3	60	1	4	3	4	8	1	1	6	6	0	1559829440	0.7334859371
1559829441	1.31666708	3	61	1	4	3	4	9	2	2	6	6	1	1559829441	0.8500421047
1559829442	1.300051928	3	62	1	4	3	4	10	1	2	6	6	1	1559829443	0.649987936
1559829444	1.300148964	3	63	1	4	3	4	11	1	1	5	6	1	1559829444	0.6501059532
1559829445	1.300121069	3	64	1	4	3	4	12	1	2	5	6	1	1559829445	0.6251809597
1559829446	1.299993038	3	65	1	4	3	4	13	2	1	6	6	0	1559829447	0.6167440414
1559829448	1.299990892	3	66	1	4	3	4	14	1	2	6	6	1	1559829448	0.7001709938
1559829449	1.300137997	3	67	1	4	3	4	15	2	1	6	6	1	1559829449	0.6833469868
1559829450	1.300002098	3	68	1	4	3	4	16	1	1	5	6	1	1559829451	0.7584621906
1559829452	1.299983025	3	69	1	4	3	4	17	1	1	5	6	1	1559829452	0.8917720318
1559829453	1.300058126	3	70	1	4	3	4	18	2	1	5	6	1	1559829453	0.7251360416
1559829454	1.291671991	3	71	1	4	9	5	1	3	3	5	6	n/a	n/a	n/a
1559829455	1.29180479	3	72	1	4	9	5	2	3	3	5	6	n/a	n/a	n/a
1559829457	1.291735888	3	73	1	4	9	5	3	3	3	5	6	n/a	n/a	n/a
1559829458	1.291670084	3	74	1	4	9	5	4	3	3	5	6	n/a	n/a	n/a
1559829459	1.291666031	3	75	1	4	9	5	5	3	3	5	6	n/a	n/a	n/a
1559829461	1.291671991	3	76	1	4	9	5	6	3	3	5	6	n/a	n/a	n/a
1559829462	1.291733027	3	77	1	4	9	5	7	3	3	5	6	n/a	n/a	n/a
1559829463	1.291623116	3	78	1	4	9	5	8	3	3	5	6	n/a	n/a	n/a
1559829465	1.291666031	3	79	1	4	9	5	9	3	3	5	6	n/a	n/a	n/a
1559829466	1.291671038	3	80	1	4	9	5	10	3	3	5	6	n/a	n/a	n/a
1559829467	1.300009012	3	81	1	4	5	6	1	1	2	4	6	1	1559829467	0.6087360382
1559829468	1.300026894	3	82	1	4	5	6	2	2	1	4	6	1	1559829469	0.5418288708
1559829470	1.300043821	3	83	1	4	5	6	3	2	2	5	6	0	1559829470	0.6083648205
1559829471	1.299987078	3	84	1	4	5	6	4	2	2	5	6	1	1559829471	0.6251199245
1559829472	1.291656017	3	85	1	4	5	6	5	2	2	5	6	1	1559829473	0.6083509922
1559829474	1.299997091	3	86	1	4	5	6	6	1	2	4	6	1	1559829474	0.5251560211
1559829475	1.300018072	3	87	1	4	5	6	7	2	2	4	6	1	1559829475	0.5917441845
1559829476	1.299999952	3	88	1	4	5	6	8	1	1	5	6	0	1559829477	0.5501527786
1559829478	1.3000319	3	89	1	4	5	6	9	2	2	6	6	0	1559829478	0.5083649158
1559829479	1.300042868	3	90	1	4	5	6	10	1	2	6	6	1	1559829479	0.6334071159
1559829480	1.300087929	3	91	1	4	5	6	11	1	2	6	6	1	1559829481	0.6500418186
1559829482	1.299995899	3	92	1	4	5	6	12	1	1	5	6	1	1559829482	0.6084001064
1559829483	1.300057888	3	93	1	4	5	6	13	1	2	5	6	1	1559829483	0.6500501633
1559829484	1.299935102	3	94	1	4	5	6	14	2	1	5	6	1	1559829484	0.6418471336
1559829485	1.299994946	3	95	1	4	5	6	15	2	2	4	6	1	1559829486	0.8084759712
1559829487	1.300106049	3	96	1	4	5	6	16	1	2	4	6	1	1559829487	0.6916971207
1559829488	1.291673899	3	97	1	4	5	6	17	1	2	5	6	0	1559829488	0.6668829918
1559829489	1.299950838	3	98	1	4	5	6	18	1	1	5	6	1	1559829490	0.6418039799
1559829491	1.300055027	3	99	1	4	5	6	19	1	1	5	6	1	1559829491	0.6417360306
1559829492	1.300068855	3	100	1	4	5	6	20	2	1	4	6	1	1559829492	0.6336240768
1559829493	1.300000906	3	101	1	4	5	6	21	1	2	4	6	1	1559829494	0.6501162052
1559829495	1.299994946	3	102	1	4	5	6	22	2	1	5	6	0	1559829495	0.7084698677
1559829496	1.300021172	3	103	1	4	5	6	23	1	1	5	6	1	1559829496	0.6250419617
1559829497	1.291643858	3	104	1	4	5	6	24	2	1	5	6	1	1559829498	0.6418771744
1559829499	1.299907207	3	105	1	4	5	6	25	1	2	4	6	1	1559829499	0.6501820087
1559829500	1.300001144	3	106	1	4	5	6	26	2	1	5	6	0	1559829500	0.6084840298
1559829501	1.299997807	3	107	1	4	5	6	27	2	2	6	6	0	1559829501	0.6668360233
1559829502	1.291615009	3	108	1	4	5	6	28	1	1	6	6	1	1559829503	0.6417169571
1559829504	1.300061941	3	109	1	4	5	6	29	2	2	6	6	1	1559829504	0.6250450611
1559829505	1.299999952	3	110	1	4	5	6	30	2	2	5	6	1	1559829505	0.6668519974
1559829506	1.299996853	3	111	1	4	5	6	31	1	1	5	6	1	1559829507	0.650124073
1559829508	1.291671038	3	112	1	4	5	6	32	2	2	5	6	1	1559829508	0.6667308807
1559829509	1.291775942	3	113	1	4	9	7	1	3	3	5	6	n/a	n/a	n/a
1559829510	1.291583061	3	114	1	4	9	7	2	3	3	5	6	n/a	n/a	n/a
1559829512	1.291721106	3	115	1	4	9	7	3	3	3	5	6	n/a	n/a	n/a
1559829513	1.291749954	3	116	1	4	9	7	4	3	3	5	6	n/a	n/a	n/a
1559829514	1.291658163	3	117	1	4	9	7	5	3	3	5	6	n/a	n/a	n/a
1559829515	1.291589022	3	118	1	4	9	7	6	3	3	5	6	n/a	n/a	n/a
1559829517	1.291609049	3	119	1	4	9	7	7	3	3	5	6	n/a	n/a	n/a
1559829518	1.291666985	3	120	1	4	9	7	8	3	3	5	6	n/a	n/a	n/a
1559829519	1.291667938	3	121	1	4	9	7	9	3	3	5	6	n/a	n/a	n/a
1559829521	1.291662931	3	122	1	4	9	7	10	3	3	5	6	n/a	n/a	n/a
1559829522	1.300127029	3	123	1	4	7	8	1	2	1	4	6	1	1559829522	0.341850996
1559829523	1.300063133	3	124	1	4	7	8	2	2	1	4	6	1	1559829524	0.7001399994
1559829525	1.299995899	3	125	1	4	7	8	3	1	2	4	6	1	1559829525	0.6418020725
1559829526	1.299992085	3	126	1	4	7	8	4	1	2	5	6	0	1559829526	0.6501481533
1559829527	1.308341026	3	127	1	4	7	8	5	2	1	5	6	1	1559829528	0.6750841141
1559829529	1.300058126	3	128	1	4	7	8	6	1	1	5	6	1	1559829529	0.666852951
1559829530	1.291661024	3	129	1	4	7	8	7	1	2	4	6	1	1559829530	0.6751770973
1559829531	1.299932003	3	130	1	4	7	8	8	1	2	4	6	1	1559829531	0.7084379196
1559829532	1.2999928	3	131	1	4	7	8	9	1	2	5	6	0	1559829533	0.7417578697
1559829534	1.299988985	3	132	1	4	7	8	10	1	2	5	6	1	1559829534	0.6750898361
1559829535	1.299951077	3	133	1	4	7	8	11	2	1	5	6	1	1559829535	0.6668071747
1559829536	1.299993992	3	134	1	4	7	8	12	1	2	4	6	1	1559829537	0.6417939663
1559829538	1.299996853	3	135	1	4	7	8	13	1	2	4	6	1	1559829538	0.6585290432
1559829539	1.299978971	3	136	1	4	7	8	14	1	1	4	6	1	1559829539	0.7083439827
1559829540	1.300050974	3	137	1	4	7	8	15	2	1	3	6	1	1559829541	0.6416780949
1559829542	1.299998999	3	138	1	4	7	8	16	2	1	3	6	1	1559829542	0.8668148518
1559829543	1.300136089	3	139	1	4	7	8	17	2	2	3	6	1	1559829543	0.7501621246
1559829544	1.291597843	3	140	1	4	7	8	18	1	1	2	6	1	1559829545	0.6334729195
1559829546	1.29173708	3	141	1	4	9	9	1	3	3	2	6	n/a	n/a	n/a
1559829547	1.291670084	3	142	1	4	9	9	2	3	3	2	6	n/a	n/a	n/a
1559829548	1.291665792	3	143	1	4	9	9	3	3	3	2	6	n/a	n/a	n/a
1559829549	1.291672945	3	144	1	4	9	9	4	3	3	2	6	n/a	n/a	n/a
1559829551	1.291666031	3	145	1	4	9	9	5	3	3	2	6	n/a	n/a	n/a
1559829552	1.291671991	3	146	1	4	9	9	6	3	3	2	6	n/a	n/a	n/a
1559829553	1.291677952	3	147	1	4	9	9	7	3	3	2	6	n/a	n/a	n/a
1559829555	1.291676044	3	148	1	4	9	9	8	3	3	2	6	n/a	n/a	n/a
1559829556	1.291664124	3	149	1	4	9	9	9	3	3	2	6	n/a	n/a	n/a
1559829557	1.291670799	3	150	1	4	9	9	10	3	3	2	6	n/a	n/a	n/a
