onset	duration	run_number	trial_number	att_task	fix_direction	bar_direction	bar_period	bar_step	fix_noise_ori	stim_noise_ori	fix_stair_val	stim_stair_val	response_val	probe_time	reaction_time
1559830369	1.29134798	7	1	1	3	9	1	1	3	3	5	5	n/a	n/a	n/a
1559830370	1.291666985	7	2	1	3	9	1	2	3	3	5	5	n/a	n/a	n/a
1559830371	1.29173708	7	3	1	3	9	1	3	3	3	5	5	n/a	n/a	n/a
1559830373	1.291606903	7	4	1	3	9	1	4	3	3	5	5	n/a	n/a	n/a
1559830374	1.29172492	7	5	1	3	9	1	5	3	3	5	5	n/a	n/a	n/a
1559830375	1.29171586	7	6	1	3	9	1	6	3	3	5	5	n/a	n/a	n/a
1559830377	1.291756868	7	7	1	3	9	1	7	3	3	5	5	n/a	n/a	n/a
1559830378	1.291678905	7	8	1	3	9	1	8	3	3	5	5	n/a	n/a	n/a
1559830379	1.291663885	7	9	1	3	9	1	9	3	3	5	5	n/a	n/a	n/a
1559830380	1.291754007	7	10	1	3	9	1	10	3	3	5	5	n/a	n/a	n/a
1559830382	1.298902988	7	11	1	3	1	2	1	2	1	5	5	1	1559830382	0.9336221218
1559830383	1.300017118	7	12	1	3	1	2	2	2	2	4	5	1	1559830383	0.8585429192
1559830384	1.291728973	7	13	1	3	1	2	3	2	2	4	5	1	1559830385	0.7668290138
1559830386	1.299972057	7	14	1	3	1	2	4	1	2	3	5	1	1559830386	0.7417888641
1559830387	1.291606903	7	15	1	3	1	2	5	1	1	4	5	0	1559830387	0.8165128231
1559830388	1.299995184	7	16	1	3	1	2	6	2	2	4	5	1	1559830389	0.7009789944
1559830390	1.299998999	7	17	1	3	1	2	7	1	2	4	5	1	1559830390	0.6419460773
1559830391	1.291666985	7	18	1	3	1	2	8	1	2	5	5	0	1559830391	0.7586679459
1559830392	1.300000906	7	19	1	3	1	2	9	2	2	6	5	0	1559830393	0.8750140667
1559830394	1.300007105	7	20	1	3	1	2	10	1	1	6	5	1	1559830394	0.7586150169
1559830395	1.291670084	7	21	1	3	1	2	11	2	1	6	5	1	1559830395	0.7335820198
1559830396	1.300006151	7	22	1	3	1	2	12	2	1	5	5	1	1559830397	0.7754378319
1559830397	1.299992085	7	23	1	3	1	2	13	1	2	5	5	1	1559830398	0.8094580173
1559830399	1.299997091	7	24	1	3	1	2	14	1	2	5	5	n/a	1559830399	n/a
1559830400	1.291662931	7	25	1	3	1	2	15	2	1	5	5	1	1559830400	0.8584928513
1559830401	1.291662216	7	26	1	3	1	2	16	2	2	5	5	n/a	1559830402	n/a
1559830403	1.299936056	7	27	1	3	1	2	17	2	1	4	5	1	1559830403	0.9001860619
1559830404	1.291643143	7	28	1	3	1	2	18	1	1	4	5	1	1559830404	0.7921040058
1559830405	1.291481972	7	29	1	3	9	3	1	3	3	4	5	n/a	n/a	n/a
1559830407	1.291642189	7	30	1	3	9	3	2	3	3	4	5	n/a	n/a	n/a
1559830408	1.291655064	7	31	1	3	9	3	3	3	3	4	5	n/a	n/a	n/a
1559830409	1.291608095	7	32	1	3	9	3	4	3	3	4	5	n/a	n/a	n/a
1559830411	1.291733027	7	33	1	3	9	3	5	3	3	4	5	n/a	n/a	n/a
1559830412	1.291667223	7	34	1	3	9	3	6	3	3	4	5	n/a	n/a	n/a
1559830413	1.29166007	7	35	1	3	9	3	7	3	3	4	5	n/a	n/a	n/a
1559830414	1.291663885	7	36	1	3	9	3	8	3	3	4	5	n/a	n/a	n/a
1559830416	1.291651011	7	37	1	3	9	3	9	3	3	4	5	n/a	n/a	n/a
1559830417	1.291692972	7	38	1	3	9	3	10	3	3	4	5	n/a	n/a	n/a
1559830418	1.29991293	7	39	1	3	5	4	1	1	2	5	5	0	1559830419	0.5833740234
1559830420	1.291646004	7	40	1	3	5	4	2	2	2	6	5	0	1559830420	0.6920540333
1559830421	1.299978971	7	41	1	3	5	4	3	1	1	6	5	1	1559830421	0.6835079193
1559830422	1.299943924	7	42	1	3	5	4	4	1	2	6	5	1	1559830423	0.716755867
1559830424	1.300120831	7	43	1	3	5	4	5	1	1	7	5	0	1559830424	0.6251740456
1559830425	1.300045013	7	44	1	3	5	4	6	2	2	7	5	1	1559830425	0.7834248543
1559830426	1.299997091	7	45	1	3	5	4	7	1	1	7	5	1	1559830426	0.6334588528
1559830427	1.29994607	7	46	1	3	5	4	8	2	2	6	5	1	1559830428	0.7001161575
1559830429	1.300026894	7	47	1	3	5	4	9	2	1	6	5	1	1559830429	0.7250671387
1559830430	1.300048113	7	48	1	3	5	4	10	1	2	6	5	1	1559830430	0.8001048565
1559830431	1.299999952	7	49	1	3	5	4	11	2	2	5	5	1	1559830432	0.7833869457
1559830433	1.299983978	7	50	1	3	5	4	12	1	2	5	5	1	1559830433	0.7251629829
1559830434	1.300004959	7	51	1	3	5	4	13	2	2	5	5	1	1559830434	0.7750661373
1559830435	1.299994946	7	52	1	3	5	4	14	1	2	6	5	0	1559830436	0.6919929981
1559830437	1.29166317	7	53	1	3	5	4	15	2	1	6	5	1	1559830437	0.6501739025
1559830438	1.29166007	7	54	1	3	5	4	16	1	1	6	5	1	1559830438	0.783411026
1559830439	1.291661978	7	55	1	3	5	4	17	2	2	5	5	1	1559830440	0.7834570408
1559830441	1.29176116	7	56	1	3	5	4	18	1	2	5	5	1	1559830441	0.8167920113
1559830442	1.291728973	7	57	1	3	9	5	1	3	3	5	5	n/a	n/a	n/a
1559830443	1.291669846	7	58	1	3	9	5	2	3	3	5	5	n/a	n/a	n/a
1559830444	1.291663885	7	59	1	3	9	5	3	3	3	5	5	n/a	n/a	n/a
1559830446	1.291634083	7	60	1	3	9	5	4	3	3	5	5	n/a	n/a	n/a
1559830447	1.291750908	7	61	1	3	9	5	5	3	3	5	5	n/a	n/a	n/a
1559830448	1.291666031	7	62	1	3	9	5	6	3	3	5	5	n/a	n/a	n/a
1559830450	1.29163003	7	63	1	3	9	5	7	3	3	5	5	n/a	n/a	n/a
1559830451	1.291723967	7	64	1	3	9	5	8	3	3	5	5	n/a	n/a	n/a
1559830452	1.291671991	7	65	1	3	9	5	9	3	3	5	5	n/a	n/a	n/a
1559830454	1.291756153	7	66	1	3	9	5	10	3	3	5	5	n/a	n/a	n/a
1559830455	1.291787148	7	67	1	3	1	6	1	1	2	6	5	0	1559830455	0.5337209702
1559830456	1.291643858	7	68	1	3	1	6	2	1	1	6	5	1	1559830456	0.5417950153
1559830457	1.299964905	7	69	1	3	1	6	3	1	2	6	5	1	1559830458	0.6833798885
1559830459	1.291635036	7	70	1	3	1	6	4	2	1	5	5	1	1559830459	0.6750500202
1559830460	1.291759014	7	71	1	3	1	6	5	1	2	5	5	1	1559830460	0.6333990097
1559830461	1.291651964	7	72	1	3	1	6	6	1	2	5	5	1	1559830462	0.6083760262
1559830463	1.300068855	7	73	1	3	1	6	7	1	1	6	5	0	1559830463	0.5750579834
1559830464	1.299998999	7	74	1	3	1	6	8	1	2	6	5	1	1559830464	0.7168340683
1559830465	1.30000186	7	75	1	3	1	6	9	2	1	6	5	1	1559830466	0.7501091957
1559830467	1.291610956	7	76	1	3	1	6	10	1	1	5	5	1	1559830467	0.6000669003
1559830468	1.30009222	7	77	1	3	1	6	11	1	1	5	5	1	1559830468	0.6250529289
1559830469	1.299997091	7	78	1	3	1	6	12	1	2	6	5	0	1559830470	0.5500721931
1559830470	1.291657925	7	79	1	3	1	6	13	1	2	6	5	1	1559830471	0.633466959
1559830472	1.300004959	7	80	1	3	1	6	14	1	2	6	5	1	1559830472	0.6751289368
1559830473	1.291787863	7	81	1	3	1	6	15	1	2	5	5	1	1559830473	0.6499950886
1559830474	1.291768074	7	82	1	3	1	6	16	2	1	5	5	1	1559830475	0.6501228809
1559830476	1.291697025	7	83	1	3	1	6	17	1	1	5	5	1	1559830476	0.6251330376
1559830477	1.291682959	7	84	1	3	1	6	18	2	2	4	5	1	1559830477	0.6501460075
1559830478	1.291404009	7	85	1	3	9	7	1	3	3	4	5	n/a	n/a	n/a
1559830480	1.291704893	7	86	1	3	9	7	2	3	3	4	5	n/a	n/a	n/a
1559830481	1.291720152	7	87	1	3	9	7	3	3	3	4	5	n/a	n/a	n/a
1559830482	1.291656017	7	88	1	3	9	7	4	3	3	4	5	n/a	n/a	n/a
1559830483	1.291666031	7	89	1	3	9	7	5	3	3	4	5	n/a	n/a	n/a
1559830485	1.291661978	7	90	1	3	9	7	6	3	3	4	5	n/a	n/a	n/a
1559830486	1.291665077	7	91	1	3	9	7	7	3	3	4	5	n/a	n/a	n/a
1559830487	1.291605949	7	92	1	3	9	7	8	3	3	4	5	n/a	n/a	n/a
1559830489	1.291666031	7	93	1	3	9	7	9	3	3	4	5	n/a	n/a	n/a
1559830490	1.291615009	7	94	1	3	9	7	10	3	3	4	5	n/a	n/a	n/a
1559830491	1.291673899	7	95	1	3	5	8	1	1	2	4	5	1	1559830492	0.6171519756
1559830493	1.291616917	7	96	1	3	5	8	2	2	2	5	5	0	1559830493	0.6834249496
1559830494	1.291650057	7	97	1	3	5	8	3	2	1	5	5	1	1559830494	0.7001349926
1559830495	1.291606188	7	98	1	3	5	8	4	2	2	5	5	1	1559830496	0.7583680153
1559830497	1.291656971	7	99	1	3	5	8	5	1	1	4	5	1	1559830497	0.641741991
1559830498	1.300072908	7	100	1	3	5	8	6	2	1	5	5	0	1559830498	0.7501020432
1559830499	1.291736126	7	101	1	3	5	8	7	1	1	5	5	1	1559830499	0.7917621136
1559830500	1.291661978	7	102	1	3	5	8	8	1	2	5	5	1	1559830501	0.7834780216
1559830502	1.30005002	7	103	1	3	5	8	9	2	2	4	5	1	1559830502	0.7834768295
1559830503	1.299998045	7	104	1	3	5	8	10	1	2	4	5	1	1559830503	0.9084980488
1559830504	1.300024033	7	105	1	3	5	8	11	2	1	4	5	n/a	1559830505	n/a
1559830506	1.291716814	7	106	1	3	5	8	12	2	2	4	5	1	1559830506	0.8917651176
1559830507	1.291643143	7	107	1	3	5	8	13	2	1	4	5	n/a	1559830507	n/a
1559830508	1.300021172	7	108	1	3	5	8	14	1	1	4	5	n/a	1559830509	n/a
1559830510	1.291605949	7	109	1	3	5	8	15	1	2	4	5	n/a	1559830510	n/a
1559830511	1.291687965	7	110	1	3	5	8	16	2	2	4	5	n/a	1559830511	n/a
1559830512	1.291685104	7	111	1	3	5	8	17	2	1	4	5	1	1559830512	0.9251630306
1559830513	1.291668177	7	112	1	3	5	8	18	2	1	4	5	0	1559830514	0.8253610134
1559830515	1.29173708	7	113	1	3	9	9	1	3	3	4	5	n/a	n/a	n/a
1559830516	1.291695118	7	114	1	3	9	9	2	3	3	4	5	n/a	n/a	n/a
1559830517	1.291673899	7	115	1	3	9	9	3	3	3	4	5	n/a	n/a	n/a
1559830519	1.291563988	7	116	1	3	9	9	4	3	3	4	5	n/a	n/a	n/a
1559830520	1.291687965	7	117	1	3	9	9	5	3	3	4	5	n/a	n/a	n/a
1559830521	1.291732073	7	118	1	3	9	9	6	3	3	4	5	n/a	n/a	n/a
1559830523	1.291604996	7	119	1	3	9	9	7	3	3	4	5	n/a	n/a	n/a
1559830524	1.29175806	7	120	1	3	9	9	8	3	3	4	5	n/a	n/a	n/a
1559830525	1.291642904	7	121	1	3	9	9	9	3	3	4	5	n/a	n/a	n/a
1559830526	1.29161191	7	122	1	3	9	9	10	3	3	4	5	n/a	n/a	n/a
