onset	duration	run_number	trial_number	att_task	fix_direction	bar_direction	bar_period	bar_step	fix_noise_ori	stim_noise_ori	fix_stair_val	stim_stair_val	response_val	probe_time	reaction_time
1559830968	1.291450024	9	1	1	2	9	1	1	3	3	4	6	n/a	n/a	n/a
1559830970	1.291771889	9	2	1	2	9	1	2	3	3	4	6	n/a	n/a	n/a
1559830971	1.291831017	9	3	1	2	9	1	3	3	3	4	6	n/a	n/a	n/a
1559830972	1.292469025	9	4	1	2	9	1	4	3	3	4	6	n/a	n/a	n/a
1559830974	1.291725159	9	5	1	2	9	1	5	3	3	4	6	n/a	n/a	n/a
1559830975	1.291719913	9	6	1	2	9	1	6	3	3	4	6	n/a	n/a	n/a
1559830976	1.291686058	9	7	1	2	9	1	7	3	3	4	6	n/a	n/a	n/a
1559830977	1.291661024	9	8	1	2	9	1	8	3	3	4	6	n/a	n/a	n/a
1559830979	1.29166317	9	9	1	2	9	1	9	3	3	4	6	n/a	n/a	n/a
1559830980	1.291699171	9	10	1	2	9	1	10	3	3	4	6	n/a	n/a	n/a
1559830981	1.307305098	9	11	1	2	1	2	1	2	1	4	6	1	1559830982	0.7835640907
1559830983	1.291782141	9	12	1	2	1	2	2	2	1	4	6	1	1559830983	0.7751090527
1559830984	1.291670084	9	13	1	2	1	2	3	2	1	5	6	0	1559830984	0.7750961781
1559830985	1.300085783	9	14	1	2	1	2	4	2	1	5	6	1	1559830986	0.6667761803
1559830987	1.291646957	9	15	1	2	1	2	5	2	2	5	6	1	1559830987	0.6498858929
1559830988	1.291708946	9	16	1	2	1	2	6	1	2	4	6	1	1559830988	0.6583790779
1559830989	1.299996138	9	17	1	2	1	2	7	2	2	5	6	0	1559830990	0.7751560211
1559830991	1.30002594	9	18	1	2	1	2	8	2	2	5	6	1	1559830991	0.7510159016
1559830992	1.291722059	9	19	1	2	1	2	9	2	2	5	6	1	1559830992	0.7338080406
1559830993	1.291658878	9	20	1	2	1	2	10	1	1	4	6	1	1559830993	0.6751170158
1559830994	1.291707993	9	21	1	2	1	2	11	2	1	5	6	0	1559830995	0.7343990803
1559830996	1.291599989	9	22	1	2	1	2	12	1	2	5	6	1	1559830996	0.7836210728
1559830997	1.299990892	9	23	1	2	1	2	13	2	2	5	6	1	1559830997	0.8334851265
1559830998	1.299998045	9	24	1	2	1	2	14	1	1	5	6	1	1559830999	0.9335780144
1559831000	1.300031185	9	25	1	2	1	2	15	1	2	4	6	n/a	1559831000	n/a
1559831001	1.300060987	9	26	1	2	1	2	16	1	2	4	6	n/a	1559831001	n/a
1559831002	1.29169488	9	27	1	2	1	2	17	1	1	4	6	n/a	1559831003	n/a
1559831004	1.291673899	9	28	1	2	1	2	18	1	2	4	6	n/a	1559831004	n/a
1559831005	1.291310072	9	29	1	2	9	3	1	3	3	4	6	n/a	n/a	n/a
1559831006	1.291648149	9	30	1	2	9	3	2	3	3	4	6	n/a	n/a	n/a
1559831007	1.291728973	9	31	1	2	9	3	3	3	3	4	6	n/a	n/a	n/a
1559831009	1.29163599	9	32	1	2	9	3	4	3	3	4	6	n/a	n/a	n/a
1559831010	1.291702986	9	33	1	2	9	3	5	3	3	4	6	n/a	n/a	n/a
1559831011	1.291651011	9	34	1	2	9	3	6	3	3	4	6	n/a	n/a	n/a
1559831013	1.291666985	9	35	1	2	9	3	7	3	3	4	6	n/a	n/a	n/a
1559831014	1.291693926	9	36	1	2	9	3	8	3	3	4	6	n/a	n/a	n/a
1559831015	1.291771889	9	37	1	2	9	3	9	3	3	4	6	n/a	n/a	n/a
1559831017	1.291675091	9	38	1	2	9	3	10	3	3	4	6	n/a	n/a	n/a
1559831018	1.300029993	9	39	1	2	5	4	1	1	1	4	6	1	1559831018	0.7335271835
1559831019	1.300085068	9	40	1	2	5	4	2	1	1	4	6	1	1559831020	0.8002591133
1559831021	1.291640997	9	41	1	2	5	4	3	1	1	5	6	0	1559831021	0.7920150757
1559831022	1.29993701	9	42	1	2	5	4	4	1	1	5	6	1	1559831022	0.6251039505
1559831023	1.300045013	9	43	1	2	5	4	5	1	1	5	6	1	1559831023	0.6834321022
1559831024	1.300061941	9	44	1	2	5	4	6	1	1	4	6	1	1559831025	0.6000640392
1559831026	1.299990892	9	45	1	2	5	4	7	1	1	4	6	1	1559831026	0.750138998
1559831027	1.299969196	9	46	1	2	5	4	8	1	1	5	6	0	1559831027	0.7251849174
1559831028	1.300080061	9	47	1	2	5	4	9	1	2	5	6	1	1559831029	0.6583991051
1559831030	1.291666031	9	48	1	2	5	4	10	2	2	5	6	1	1559831030	0.7500560284
1559831031	1.300110102	9	49	1	2	5	4	11	1	2	4	6	1	1559831031	0.7085261345
1559831032	1.291652918	9	50	1	2	5	4	12	2	2	4	6	1	1559831033	0.6917068958
1559831034	1.291660786	9	51	1	2	5	4	13	1	1	4	6	1	1559831034	0.7417562008
1559831035	1.299942017	9	52	1	2	5	4	14	1	2	3	6	1	1559831035	0.7584052086
1559831036	1.291543007	9	53	1	2	5	4	15	2	2	4	6	0	1559831037	0.8835570812
1559831037	1.291735172	9	54	1	2	5	4	16	1	2	4	6	1	1559831038	0.8083369732
1559831039	1.29166007	9	55	1	2	5	4	17	1	1	4	6	1	1559831039	0.7834858894
1559831040	1.291662931	9	56	1	2	5	4	18	1	2	3	6	1	1559831040	0.7834298611
1559831041	1.291723013	9	57	1	2	9	5	1	3	3	3	6	n/a	n/a	n/a
1559831043	1.291704893	9	58	1	2	9	5	2	3	3	3	6	n/a	n/a	n/a
1559831044	1.291706085	9	59	1	2	9	5	3	3	3	3	6	n/a	n/a	n/a
1559831045	1.291662931	9	60	1	2	9	5	4	3	3	3	6	n/a	n/a	n/a
1559831047	1.291666985	9	61	1	2	9	5	5	3	3	3	6	n/a	n/a	n/a
1559831048	1.29164505	9	62	1	2	9	5	6	3	3	3	6	n/a	n/a	n/a
1559831049	1.291718006	9	63	1	2	9	5	7	3	3	3	6	n/a	n/a	n/a
1559831050	1.29169488	9	64	1	2	9	5	8	3	3	3	6	n/a	n/a	n/a
1559831052	1.291666031	9	65	1	2	9	5	9	3	3	3	6	n/a	n/a	n/a
1559831053	1.29166317	9	66	1	2	9	5	10	3	3	3	6	n/a	n/a	n/a
1559831054	1.291762114	9	67	1	2	1	6	1	1	1	3	6	1	1559831055	0.55864501
1559831056	1.291723013	9	68	1	2	1	6	2	2	2	3	6	1	1559831056	0.6500720978
1559831057	1.308357954	9	69	1	2	1	6	3	1	2	2	6	1	1559831057	0.883343935
1559831058	1.300024986	9	70	1	2	1	6	4	2	1	2	6	1	1559831059	0.7416930199
1559831060	1.291780949	9	71	1	2	1	6	5	1	1	2	6	1	1559831060	0.7584280968
1559831061	1.300143003	9	72	1	2	1	6	6	2	2	2	6	1	1559831061	0.6335158348
1559831062	1.300023079	9	73	1	2	1	6	7	2	1	3	6	0	1559831063	0.6337530613
1559831064	1.300052881	9	74	1	2	1	6	8	1	1	3	6	1	1559831064	0.6585218906
1559831065	1.291775942	9	75	1	2	1	6	9	1	1	3	6	1	1559831065	0.6750030518
1559831066	1.291656971	9	76	1	2	1	6	10	1	2	2	6	1	1559831066	0.6417489052
1559831067	1.29169178	9	77	1	2	1	6	11	2	1	3	6	0	1559831068	0.7750251293
1559831069	1.291747093	9	78	1	2	1	6	12	1	2	3	6	1	1559831069	0.7502400875
1559831070	1.291686058	9	79	1	2	1	6	13	1	1	4	6	0	1559831070	0.8000850677
1559831071	1.291664839	9	80	1	2	1	6	14	2	1	4	6	1	1559831072	0.7667441368
1559831073	1.291646004	9	81	1	2	1	6	15	2	1	4	6	1	1559831073	0.8001060486
1559831074	1.291695118	9	82	1	2	1	6	16	2	1	3	6	1	1559831074	0.741756916
1559831075	1.291707039	9	83	1	2	1	6	17	1	2	3	6	1	1559831076	0.6584129333
1559831077	1.291658163	9	84	1	2	1	6	18	2	2	3	6	1	1559831077	0.7416567802
1559831078	1.291698933	9	85	1	2	9	7	1	3	3	3	6	n/a	n/a	n/a
1559831079	1.291651964	9	86	1	2	9	7	2	3	3	3	6	n/a	n/a	n/a
1559831080	1.291681051	9	87	1	2	9	7	3	3	3	3	6	n/a	n/a	n/a
1559831082	1.291610956	9	88	1	2	9	7	4	3	3	3	6	n/a	n/a	n/a
1559831083	1.291723013	9	89	1	2	9	7	5	3	3	3	6	n/a	n/a	n/a
1559831084	1.291662931	9	90	1	2	9	7	6	3	3	3	6	n/a	n/a	n/a
1559831086	1.291676998	9	91	1	2	9	7	7	3	3	3	6	n/a	n/a	n/a
1559831087	1.291656017	9	92	1	2	9	7	8	3	3	3	6	n/a	n/a	n/a
1559831088	1.291722059	9	93	1	2	9	7	9	3	3	3	6	n/a	n/a	n/a
1559831090	1.29163909	9	94	1	2	9	7	10	3	3	3	6	n/a	n/a	n/a
1559831091	1.300050974	9	95	1	2	5	8	1	2	1	2	6	1	1559831091	0.7921328545
1559831092	1.291692019	9	96	1	2	5	8	2	1	1	3	6	0	1559831093	0.6918289661
1559831093	1.299996853	9	97	1	2	5	8	3	2	2	4	6	0	1559831094	0.6084671021
1559831095	1.291672945	9	98	1	2	5	8	4	1	2	4	6	1	1559831095	0.6750509739
1559831096	1.300009966	9	99	1	2	5	8	5	2	1	5	6	0	1559831096	0.5917708874
1559831097	1.299993038	9	100	1	2	5	8	6	2	1	5	6	1	1559831098	0.6917569637
1559831099	1.291677952	9	101	1	2	5	8	7	1	1	5	6	1	1559831099	0.7251210213
1559831100	1.299757957	9	102	1	2	5	8	8	1	2	4	6	1	1559831100	0.7833800316
1559831101	1.300090075	9	103	1	2	5	8	9	1	1	4	6	1	1559831102	0.8668029308
1559831103	1.300006151	9	104	1	2	5	8	10	1	2	4	6	1	1559831103	0.9334630966
1559831104	1.291754007	9	105	1	2	5	8	11	1	1	4	6	n/a	1559831104	n/a
1559831105	1.300000906	9	106	1	2	5	8	12	1	1	3	6	1	1559831106	0.8918881416
1559831107	1.300004959	9	107	1	2	5	8	13	2	2	3	6	0	1559831107	0.9166772366
1559831108	1.299994946	9	108	1	2	5	8	14	2	2	4	6	n/a	1559831108	n/a
1559831109	1.291637897	9	109	1	2	5	8	15	2	1	4	6	1	1559831109	0.9501399994
1559831110	1.291661978	9	110	1	2	5	8	16	1	1	4	6	n/a	1559831111	n/a
1559831112	1.291638136	9	111	1	2	5	8	17	2	1	4	6	1	1559831112	0.9083662033
1559831113	1.291716099	9	112	1	2	5	8	18	2	1	3	6	1	1559831113	0.8750400543
1559831114	1.291785955	9	113	1	2	9	9	1	3	3	3	6	n/a	n/a	n/a
1559831116	1.291671991	9	114	1	2	9	9	2	3	3	3	6	n/a	n/a	n/a
1559831117	1.291664124	9	115	1	2	9	9	3	3	3	3	6	n/a	n/a	n/a
1559831118	1.291664839	9	116	1	2	9	9	4	3	3	3	6	n/a	n/a	n/a
1559831120	1.291728973	9	117	1	2	9	9	5	3	3	3	6	n/a	n/a	n/a
1559831121	1.291722059	9	118	1	2	9	9	6	3	3	3	6	n/a	n/a	n/a
1559831122	1.291680098	9	119	1	2	9	9	7	3	3	3	6	n/a	n/a	n/a
1559831123	1.291652918	9	120	1	2	9	9	8	3	3	3	6	n/a	n/a	n/a
1559831125	1.291657925	9	121	1	2	9	9	9	3	3	3	6	n/a	n/a	n/a
1559831126	1.291627884	9	122	1	2	9	9	10	3	3	3	6	n/a	n/a	n/a
