onset	duration	run_number	trial_number	att_task	seq_acquisition	bar_direction	bar_period	bar_step	stim_noise_ori	stim_stair_val	response_val	probe_time	reaction_time
3336.224115	1.1920306	4	1	1	2	9	1	1	3	6	n/a	n/a	n/a
3337.42436	1.1922712	4	2	1	2	9	1	2	3	6	n/a	n/a	n/a
3338.624831	1.192186	4	3	1	2	9	1	3	3	6	n/a	n/a	n/a
3339.825408	1.1922329	4	4	1	2	9	1	4	3	6	n/a	n/a	n/a
3341.026683	1.1922151	4	5	1	2	9	1	5	3	6	n/a	n/a	n/a
3342.226378	1.1921792	4	6	1	2	9	1	6	3	6	n/a	n/a	n/a
3343.426783	1.1921982	4	7	1	2	9	1	7	3	6	n/a	n/a	n/a
3344.627265	1.1921434	4	8	1	2	9	1	8	3	6	n/a	n/a	n/a
3345.827777	1.1921307	4	9	1	2	9	1	9	3	6	n/a	n/a	n/a
3347.028189	1.1921061	4	10	1	2	9	1	10	3	6	n/a	n/a	n/a
3348.246179	1.2080474	4	11	1	2	1	2	1	1	6	1	3348.595575	0.5037828
3349.462469	1.2006189	4	12	1	2	1	2	2	2	5	1	3349.804531	0.5620329
3350.671295	1.2006091	4	13	1	2	1	2	3	1	6	0	3351.013294	0.6869151
3351.880234	1.1921458	4	14	1	2	1	2	4	2	6	1	3352.222152	0.6284103
3353.080616	1.2256021	4	15	1	2	1	2	5	1	6	1	3353.4235	0.6191633
3354.314528	1.2254478	4	16	1	2	1	2	6	2	5	1	3354.65657	0.6615854
3355.548359	1.2004211	4	17	1	2	1	2	7	1	5	1	3355.890197	0.5617492
3356.757205	1.2004545	4	18	1	2	1	2	8	2	5	1	3357.098938	0.5965685
3357.965939	1.2338289	4	19	1	2	1	2	9	2	6	0	3358.307794	0.6035861
3359.208221	1.2254383	4	20	1	2	1	2	10	1	6	1	3359.549933	0.5048705
3360.441929	1.2256044	4	21	1	2	1	2	11	1	7	0	3360.783755	0.513065
3361.675874	1.2004548	4	22	1	2	1	2	12	1	7	1	3362.017645	0.5536415
3362.884717	1.2171313	4	23	1	2	1	2	13	2	8	0	3363.226473	0.620435
3364.110086	1.2339078	4	24	1	2	1	2	14	1	8	1	3364.451988	0.7289042
3365.352224	1.2255878	4	25	1	2	1	2	15	2	8	1	3365.694089	0.6452604
3366.58615	1.2255112	4	26	1	2	1	2	16	1	9	0	3366.928003	0.7116875
3367.819999	1.1921402	4	27	1	2	1	2	17	2	9	1	3368.161797	0.7533073
3369.020421	1.1921149	4	28	1	2	1	2	18	1	9	1	3369.362283	0.7200814
3370.229789	1.2003782	4	29	1	2	9	3	1	3	9	n/a	n/a	n/a
3371.438399	1.1918658	4	30	1	2	9	3	2	3	9	n/a	n/a	n/a
3372.63855	1.1921076	4	31	1	2	9	3	3	3	9	n/a	n/a	n/a
3373.839096	1.1921285	4	32	1	2	9	3	4	3	9	n/a	n/a	n/a
3375.039609	1.1921072	4	33	1	2	9	3	5	3	9	n/a	n/a	n/a
3376.240111	1.1920759	4	34	1	2	9	3	6	3	9	n/a	n/a	n/a
3377.440596	1.1921381	4	35	1	2	9	3	7	3	9	n/a	n/a	n/a
3378.641033	1.1920847	4	36	1	2	9	3	8	3	9	n/a	n/a	n/a
3379.841546	1.1920743	4	37	1	2	9	3	9	3	9	n/a	n/a	n/a
3381.042021	1.1930163	4	38	1	2	9	3	10	3	9	n/a	n/a	n/a
3382.250885	1.200343	4	39	1	2	3	4	1	2	10	0	3382.592575	0.4534187
3383.459694	1.2339493	4	40	1	2	3	4	2	1	10	1	3383.801486	0.5784453
3384.701846	1.2171175	4	41	1	2	3	4	3	2	10	1	3385.043605	0.6116819
3385.92725	1.2506159	4	42	1	2	3	4	4	2	9	1	3386.26917	0.6617858
3387.186223	1.1921067	4	43	1	2	3	4	5	1	9	1	3387.52802	0.6034088
3388.386617	1.1921533	4	44	1	2	3	4	6	2	9	1	3388.728404	0.5700391
3389.587152	1.1921626	4	45	1	2	3	4	7	1	8	1	3389.928989	0.5366776
3390.787573	1.2338707	4	46	1	2	3	4	8	2	8	1	3391.129422	0.5697996
3392.029761	1.2422145	4	47	1	2	3	4	9	1	8	1	3392.371633	0.5615352
3393.28033	1.2421558	4	48	1	2	3	4	10	1	7	1	3393.622121	0.6034383
3394.530763	1.2339361	4	49	1	2	3	4	11	2	7	1	3394.87261	0.6948878
3395.77297	1.2338386	4	50	1	2	3	4	12	2	7	1	3396.114776	0.7284416
3397.015127	1.2171925	4	51	1	2	3	4	13	1	6	1	3397.356884	0.6618666
3398.240656	1.217187	4	52	1	2	3	4	14	1	7	0	3398.582506	0.8035232
3399.466083	1.2338965	4	53	1	2	3	4	15	1	7	1	3399.807925	0.6200091
3400.708267	1.2255173	4	54	1	2	3	4	16	2	7	1	3401.05004	0.5615757
3401.942122	1.2005564	4	55	1	2	3	4	17	2	6	1	3402.284015	0.6948347
3403.150967	1.2254294	4	56	1	2	3	4	18	1	6	1	3403.492725	0.6449739
3404.393152	1.1920757	4	57	1	2	9	5	1	3	6	n/a	n/a	n/a
3405.593677	1.1921137	4	58	1	2	9	5	2	3	6	n/a	n/a	n/a
3406.79412	1.1921875	4	59	1	2	9	5	3	3	6	n/a	n/a	n/a
3407.994564	1.1921385	4	60	1	2	9	5	4	3	6	n/a	n/a	n/a
3409.195147	1.1921181	4	61	1	2	9	5	5	3	6	n/a	n/a	n/a
3410.395601	1.192074	4	62	1	2	9	5	6	3	6	n/a	n/a	n/a
3411.596123	1.1920854	4	63	1	2	9	5	7	3	6	n/a	n/a	n/a
3412.796588	1.1920805	4	64	1	2	9	5	8	3	6	n/a	n/a	n/a
3413.997164	1.1919871	4	65	1	2	9	5	9	3	6	n/a	n/a	n/a
3415.197563	1.1921594	4	66	1	2	9	5	10	3	6	n/a	n/a	n/a
3416.406408	1.2254689	4	67	1	2	5	6	1	2	7	0	3416.748098	0.528367
3417.640123	1.2005964	4	68	1	2	5	6	2	1	8	0	3417.981988	0.4785628
3418.849016	1.2170475	4	69	1	2	5	6	3	2	8	1	3419.190829	0.686628
3420.074535	1.2337183	4	70	1	2	5	6	4	1	8	1	3420.416242	0.6117672
3421.316703	1.1922248	4	71	1	2	5	6	5	1	7	1	3421.658575	0.6949465
3422.517083	1.2005731	4	72	1	2	5	6	6	2	7	1	3422.858978	0.7363641
3423.726016	1.1921513	4	73	1	2	5	6	7	1	7	1	3424.0677	0.6535275
3424.926401	1.2256322	4	74	1	2	5	6	8	1	6	1	3425.268278	0.6032644
3426.160288	1.2004712	4	75	1	2	5	6	9	1	6	1	3426.502137	0.6033889
3427.36915	1.2254178	4	76	1	2	5	6	10	1	6	1	3427.710946	0.6367099
3428.603023	1.2254613	4	77	1	2	5	6	11	2	5	1	3428.94472	0.7201468
3429.836744	1.1922302	4	78	1	2	5	6	12	2	5	n/a	3430.178588	n/a
3431.037311	1.2004329	4	79	1	2	5	6	13	1	5	n/a	3431.37911	n/a
3432.246135	1.2086867	4	80	1	2	5	6	14	2	5	n/a	3432.587834	n/a
3433.463296	1.2255074	4	81	1	2	5	6	15	2	5	n/a	3433.805019	n/a
3434.697029	1.2256065	4	82	1	2	5	6	16	2	5	1	3435.038911	0.0033053
3435.930932	1.1920833	4	83	1	2	5	6	17	1	6	0	3436.272754	0.0030492
3437.131426	1.1921292	4	84	1	2	5	6	18	1	6	1	3437.473205	0.0032173
3438.340156	1.1921644	4	85	1	2	9	7	1	3	6	n/a	n/a	n/a
3439.540761	1.1921193	4	86	1	2	9	7	2	3	6	n/a	n/a	n/a
3440.741179	1.1921503	4	87	1	2	9	7	3	3	6	n/a	n/a	n/a
3441.941721	1.1921353	4	88	1	2	9	7	4	3	6	n/a	n/a	n/a
3443.142213	1.1921074	4	89	1	2	9	7	5	3	6	n/a	n/a	n/a
3444.342704	1.1920855	4	90	1	2	9	7	6	3	6	n/a	n/a	n/a
3445.54321	1.1921085	4	91	1	2	9	7	7	3	6	n/a	n/a	n/a
3446.743617	1.1921184	4	92	1	2	9	7	8	3	6	n/a	n/a	n/a
3447.944201	1.1921022	4	93	1	2	9	7	9	3	6	n/a	n/a	n/a
3449.144573	1.1921455	4	94	1	2	9	7	10	3	6	n/a	n/a	n/a
3450.353539	1.2087762	4	95	1	2	7	8	1	1	7	0	3450.695183	0.2698272
3451.570641	1.1920736	4	96	1	2	7	8	2	2	7	1	3451.912442	0.6451616
3452.771211	1.2004034	4	97	1	2	7	8	3	1	7	1	3453.112806	0.7034392
3453.979916	1.208857	4	98	1	2	7	8	4	2	6	1	3454.321768	0.6031559
3455.197031	1.2255715	4	99	1	2	7	8	5	2	6	1	3455.538863	0.6535041
3456.430891	1.2422427	4	100	1	2	7	8	6	1	6	1	3456.773679	0.5441722
3457.681398	1.1921863	4	101	1	2	7	8	7	1	5	1	3458.023196	0.561576
3458.881934	1.2254501	4	102	1	2	7	8	8	2	5	1	3459.223745	0.5864676
3460.11576	1.1921431	4	103	1	2	7	8	9	1	5	1	3460.457638	0.6697942
3461.31621	1.2088777	4	104	1	2	7	8	10	2	4	1	3461.658059	0.6282063
3462.533351	1.2255399	4	105	1	2	7	8	11	2	5	0	3462.875201	0.6620038
3463.767245	1.2338411	4	106	1	2	7	8	12	2	5	1	3464.109044	0.6533722
3465.009393	1.217128	4	107	1	2	7	8	13	1	5	1	3465.351221	0.6368695
3466.234839	1.2338135	4	108	1	2	7	8	14	1	4	1	3466.576621	0.6618128
3467.477096	1.2254737	4	109	1	2	7	8	15	2	4	1	3467.818816	0.561624
3468.710822	1.2255042	4	110	1	2	7	8	16	2	5	0	3469.052686	0.5781529
3469.944698	1.192113	4	111	1	2	7	8	17	1	5	1	3470.286575	0.611723
3471.145269	1.225458	4	112	1	2	7	8	18	2	6	0	3471.48697	0.8200425
3472.387411	1.1920697	4	113	1	2	9	9	1	3	6	n/a	n/a	n/a
3473.587863	1.1921441	4	114	1	2	9	9	2	3	6	n/a	n/a	n/a
3474.788498	1.1920295	4	115	1	2	9	9	3	3	6	n/a	n/a	n/a
3475.988873	1.19214	4	116	1	2	9	9	4	3	6	n/a	n/a	n/a
3477.18943	1.1921632	4	117	1	2	9	9	5	3	6	n/a	n/a	n/a
3478.389848	1.1921867	4	118	1	2	9	9	6	3	6	n/a	n/a	n/a
3479.590291	1.1920872	4	119	1	2	9	9	7	3	6	n/a	n/a	n/a
3480.790815	1.1921172	4	120	1	2	9	9	8	3	6	n/a	n/a	n/a
3481.991298	1.1922095	4	121	1	2	9	9	9	3	6	n/a	n/a	n/a
3483.191877	1.1921261	4	122	1	2	9	9	10	3	6	n/a	n/a	n/a
