onset	duration	run_number	trial_number	att_task	seq_acquisition	bar_direction	bar_period	bar_step	stim_noise_ori	stim_stair_val	response_val	probe_time	reaction_time
4269.010689	1.192017	7	1	1	1	9	1	1	3	8	n/a	n/a	n/a
4270.211219	1.1920155	7	2	1	1	9	1	2	3	8	n/a	n/a	n/a
4271.411586	1.1921491	7	3	1	1	9	1	3	3	8	n/a	n/a	n/a
4272.612068	1.1921791	7	4	1	1	9	1	4	3	8	n/a	n/a	n/a
4273.813435	1.1921121	7	5	1	1	9	1	5	3	8	n/a	n/a	n/a
4275.012912	1.1923241	7	6	1	1	9	1	6	3	8	n/a	n/a	n/a
4276.213365	1.1922157	7	7	1	1	9	1	7	3	8	n/a	n/a	n/a
4277.413883	1.1921164	7	8	1	1	9	1	8	3	8	n/a	n/a	n/a
4278.61445	1.1922289	7	9	1	1	9	1	9	3	8	n/a	n/a	n/a
4279.814898	1.192075	7	10	1	1	9	1	10	3	8	n/a	n/a	n/a
4281.032858	1.2412835	7	11	1	1	1	2	1	2	8	1	4281.382238	0.6370744
4282.282567	1.2254005	7	12	1	1	1	2	2	1	7	1	4282.624434	0.7035811
4283.516277	1.1922653	7	13	1	1	1	2	3	1	7	1	4283.858285	0.7367795
4284.716795	1.192155	7	14	1	1	1	2	4	1	7	1	4285.05882	0.6115822
4285.917291	1.1921313	7	15	1	1	1	2	5	2	6	1	4286.260062	0.5443114
4287.117775	1.2005376	7	16	1	1	1	2	6	2	6	1	4287.460006	0.519691
4288.326608	1.2338192	7	17	1	1	1	2	7	2	7	0	4288.668364	0.4951674
4289.568843	1.2171863	7	18	1	1	1	2	8	2	7	1	4289.91055	0.5619449
4290.794342	1.1920905	7	19	1	1	1	2	9	2	7	1	4291.136144	0.5130794
4291.994708	1.2006243	7	20	1	1	1	2	10	1	6	1	4292.336591	0.5131044
4293.203571	1.2004725	7	21	1	1	1	2	11	1	7	0	4293.545443	0.4783178
4294.412497	1.1921498	7	22	1	1	1	2	12	1	7	1	4294.75418	0.5037656
4295.612872	1.2005973	7	23	1	1	1	2	13	2	7	1	4295.954726	0.6705014
4296.821796	1.19207	7	24	1	1	1	2	14	1	8	0	4297.163562	0.545063
4298.02248	1.1919411	7	25	1	1	1	2	15	1	8	1	4298.363984	0.6367998
4299.222753	1.2004101	7	26	1	1	1	2	16	1	8	1	4299.564548	0.6364514
4300.431506	1.2255295	7	27	1	1	1	2	17	1	9	0	4300.773272	0.6449086
4301.665609	1.1919549	7	28	1	1	1	2	18	2	9	1	4302.007115	0.7034299
4302.874666	1.1918087	7	29	1	1	9	3	1	3	9	n/a	n/a	n/a
4304.074973	1.1919309	7	30	1	1	9	3	2	3	9	n/a	n/a	n/a
4305.275223	1.1921129	7	31	1	1	9	3	3	3	9	n/a	n/a	n/a
4306.475871	1.1919588	7	32	1	1	9	3	4	3	9	n/a	n/a	n/a
4307.676204	1.1920925	7	33	1	1	9	3	5	3	9	n/a	n/a	n/a
4308.876592	1.1921655	7	34	1	1	9	3	6	3	9	n/a	n/a	n/a
4310.077192	1.1921092	7	35	1	1	9	3	7	3	9	n/a	n/a	n/a
4311.277573	1.1921624	7	36	1	1	9	3	8	3	9	n/a	n/a	n/a
4312.478127	1.192183	7	37	1	1	9	3	9	3	9	n/a	n/a	n/a
4313.678671	1.1920988	7	38	1	1	9	3	10	3	9	n/a	n/a	n/a
4314.887479	1.1921299	7	39	1	1	3	4	1	2	9	1	4315.22926	0.6115117
4316.08786	1.1921478	7	40	1	1	3	4	2	1	8	1	4316.429749	0.6116261
4317.288439	1.2254394	7	41	1	1	3	4	3	2	8	1	4317.630171	0.6283471
4318.522203	1.233857	7	42	1	1	3	4	4	2	8	1	4318.863955	0.6449313
4319.764358	1.2255776	7	43	1	1	3	4	5	1	7	1	4320.106164	0.7286144
4320.998196	1.2338121	7	44	1	1	3	4	6	1	7	1	4321.340063	0.6781999
4322.240358	1.2255826	7	45	1	1	3	4	7	2	7	1	4322.582201	0.628405
4323.474221	1.2004688	7	46	1	1	3	4	8	1	6	1	4323.816083	0.5615842
4324.683122	1.2337493	7	47	1	1	3	4	9	2	6	1	4325.024812	0.5782007
4325.92528	1.2255807	7	48	1	1	3	4	10	1	6	1	4326.267093	0.6032502
4327.15909	1.2003971	7	49	1	1	3	4	11	2	5	1	4327.500918	0.5533154
4328.367925	1.1921406	7	50	1	1	3	4	12	2	6	0	4328.709672	0.653684
4329.568415	1.1921389	7	51	1	1	3	4	13	2	6	1	4329.910198	0.6366329
4330.768854	1.2005387	7	52	1	1	3	4	14	2	6	1	4331.110656	0.6116417
4331.977685	1.2255665	7	53	1	1	3	4	15	1	5	1	4332.319554	0.6699196
4333.211576	1.2254781	7	54	1	1	3	4	16	1	5	1	4333.553375	0.7114524
4334.445411	1.2254212	7	55	1	1	3	4	17	1	5	1	4334.787167	0.7449757
4335.679317	1.2170899	7	56	1	1	3	4	18	1	6	0	4336.020974	0.5531896
4336.912946	1.1921672	7	57	1	1	9	5	1	3	6	n/a	n/a	n/a
4338.113524	1.1921562	7	58	1	1	9	5	2	3	6	n/a	n/a	n/a
4339.314019	1.1920759	7	59	1	1	9	5	3	3	6	n/a	n/a	n/a
4340.514468	1.192184	7	60	1	1	9	5	4	3	6	n/a	n/a	n/a
4341.714997	1.1921582	7	61	1	1	9	5	5	3	6	n/a	n/a	n/a
4342.915432	1.1921182	7	62	1	1	9	5	6	3	6	n/a	n/a	n/a
4344.115994	1.1921473	7	63	1	1	9	5	7	3	6	n/a	n/a	n/a
4345.316417	1.192115	7	64	1	1	9	5	8	3	6	n/a	n/a	n/a
4346.516938	1.1921621	7	65	1	1	9	5	9	3	6	n/a	n/a	n/a
4347.717464	1.1920782	7	66	1	1	9	5	10	3	6	n/a	n/a	n/a
4348.926303	1.2003357	7	67	1	1	5	6	1	2	6	1	4349.268033	0.6283746
4350.134958	1.2256422	7	68	1	1	5	6	2	2	6	1	4350.476814	0.6532491
4351.368859	1.2171694	7	69	1	1	5	6	3	2	5	1	4351.710711	0.6616102
4352.594422	1.2338253	7	70	1	1	5	6	4	2	5	1	4352.936219	0.7615333
4353.836583	1.2253877	7	71	1	1	5	6	5	1	5	1	4354.17832	0.6866146
4355.070448	1.2337023	7	72	1	1	5	6	6	2	4	1	4355.412162	0.6617267
4356.312609	1.2003607	7	73	1	1	5	6	7	2	5	0	4356.654392	0.6447712
4357.521374	1.1921882	7	74	1	1	5	6	8	2	5	1	4357.863161	0.5949687
4358.721905	1.2422068	7	75	1	1	5	6	9	1	5	1	4359.063693	0.6281904
4359.972315	1.1922854	7	76	1	1	5	6	10	2	4	1	4360.314113	0.6532921
4361.172922	1.2004278	7	77	1	1	5	6	11	2	4	1	4361.514661	0.6032537
4362.381719	1.2005033	7	78	1	1	5	6	12	1	4	1	4362.723436	0.7127559
4363.590485	1.200551	7	79	1	1	5	6	13	1	3	1	4363.932328	0.669936
4364.799389	1.2338339	7	80	1	1	5	6	14	1	3	1	4365.141198	0.8281526
4366.041523	1.1921036	7	81	1	1	5	6	15	2	3	1	4366.383346	0.7032333
4367.242018	1.2255185	7	82	1	1	5	6	16	2	2	1	4367.583908	0.7949542
4368.475781	1.2255843	7	83	1	1	5	6	17	2	2	n/a	4368.817565	n/a
4369.709704	1.2170864	7	84	1	1	5	6	18	1	2	1	4370.051489	0.770054
4370.943455	1.1921943	7	85	1	1	9	7	1	3	2	n/a	n/a	n/a
4372.14394	1.1922335	7	86	1	1	9	7	2	3	2	n/a	n/a	n/a
4373.344482	1.1921889	7	87	1	1	9	7	3	3	2	n/a	n/a	n/a
4374.544925	1.1921632	7	88	1	1	9	7	4	3	2	n/a	n/a	n/a
4375.74548	1.1921136	7	89	1	1	9	7	5	3	2	n/a	n/a	n/a
4376.945956	1.1921256	7	90	1	1	9	7	6	3	2	n/a	n/a	n/a
4378.146349	1.192188	7	91	1	1	9	7	7	3	2	n/a	n/a	n/a
4379.346952	1.1921389	7	92	1	1	9	7	8	3	2	n/a	n/a	n/a
4380.547335	1.1921774	7	93	1	1	9	7	9	3	2	n/a	n/a	n/a
4381.747941	1.1921122	7	94	1	1	9	7	10	3	2	n/a	n/a	n/a
4382.956662	1.2255492	7	95	1	1	7	8	1	2	2	1	4383.298485	0.8369066
4384.190555	1.2338649	7	96	1	1	7	8	2	2	2	1	4384.532349	0.7031463
4385.43267	1.2171139	7	97	1	1	7	8	3	2	3	0	4385.774543	0.6616742
4386.658231	1.2421857	7	98	1	1	7	8	4	2	4	0	4387.000064	0.6368071
4387.908679	1.1921429	7	99	1	1	7	8	5	1	5	0	4388.250574	0.6368757
4389.10926	1.1921432	7	100	1	1	7	8	6	1	6	0	4389.450993	0.7866693
4390.309713	1.1921013	7	101	1	1	7	8	7	1	6	1	4390.651537	0.5699722
4391.510356	1.1920228	7	102	1	1	7	8	8	2	6	1	4391.851934	0.5449583
4392.710724	1.1921056	7	103	1	1	7	8	9	2	5	1	4393.052499	0.5865459
4393.9111	1.192145	7	104	1	1	7	8	10	1	5	1	4394.252866	0.6117366
4395.111687	1.2087833	7	105	1	1	7	8	11	1	5	1	4395.453494	0.6867507
4396.328831	1.2254262	7	106	1	1	7	8	12	1	4	1	4396.67062	0.6866149
4397.562688	1.2337339	7	107	1	1	7	8	13	1	4	1	4397.904415	0.703346
4398.804737	1.2338457	7	108	1	1	7	8	14	2	4	1	4399.146605	0.6783422
4400.047026	1.1921459	7	109	1	1	7	8	15	2	3	1	4400.388813	0.6615359
4401.247443	1.2255308	7	110	1	1	7	8	16	1	3	1	4401.590272	0.6273036
4402.481391	1.2003557	7	111	1	1	7	8	17	2	3	1	4402.823139	0.5950229
4403.690157	1.1921523	7	112	1	1	7	8	18	2	4	0	4404.031943	0.6115611
4404.898962	1.1921395	7	113	1	1	9	9	1	3	4	n/a	n/a	n/a
4406.099487	1.1921382	7	114	1	1	9	9	2	3	4	n/a	n/a	n/a
4407.299903	1.1921134	7	115	1	1	9	9	3	3	4	n/a	n/a	n/a
4408.500435	1.1921504	7	116	1	1	9	9	4	3	4	n/a	n/a	n/a
4409.700872	1.192133	7	117	1	1	9	9	5	3	4	n/a	n/a	n/a
4410.901415	1.1922037	7	118	1	1	9	9	6	3	4	n/a	n/a	n/a
4412.101876	1.192124	7	119	1	1	9	9	7	3	4	n/a	n/a	n/a
4413.302375	1.1920742	7	120	1	1	9	9	8	3	4	n/a	n/a	n/a
4414.502868	1.1921986	7	121	1	1	9	9	9	3	4	n/a	n/a	n/a
4415.704948	1.1904823	7	122	1	1	9	9	10	3	4	n/a	n/a	n/a
