onset	duration	run_number	trial_number	att_task	seq_acquisition	bar_direction	bar_period	bar_step	stim_noise_ori	stim_stair_val	response_val	probe_time	reaction_time
1202.560646	1.2485139	1	1	1	1	9	1	1	3	9	n/a	n/a	n/a
1203.817536	1.2420642	1	2	1	1	9	1	2	3	9	n/a	n/a	n/a
1205.067935	1.2423345	1	3	1	1	9	1	3	3	9	n/a	n/a	n/a
1206.318603	1.2420281	1	4	1	1	9	1	4	3	9	n/a	n/a	n/a
1207.569804	1.2421648	1	5	1	1	9	1	5	3	9	n/a	n/a	n/a
1208.81945	1.2422046	1	6	1	1	9	1	6	3	9	n/a	n/a	n/a
1210.069773	1.2421957	1	7	1	1	9	1	7	3	9	n/a	n/a	n/a
1211.320488	1.2420494	1	8	1	1	9	1	8	3	9	n/a	n/a	n/a
1212.570771	1.2421503	1	9	1	1	9	1	9	3	9	n/a	n/a	n/a
1213.821483	1.2421094	1	10	1	1	9	1	10	3	9	n/a	n/a	n/a
1215.302841	1.3197159	1	11	1	1	1	2	1	2	9	n/a	1215.697389	n/a
1216.63092	1.3004545	1	12	1	1	1	2	2	1	9	n/a	1217.022871	n/a
1217.939713	1.317242	1	13	1	1	1	2	3	1	9	n/a	1218.340022	n/a
1219.265396	1.3254364	1	14	1	1	1	2	4	2	9	n/a	1219.665652	n/a
1220.5991	1.3089679	1	15	1	1	1	2	5	2	9	n/a	1221.000381	n/a
1221.9164	1.3088005	1	16	1	1	1	2	6	1	9	n/a	1222.316662	n/a
1223.233373	1.3172861	1	17	1	1	1	2	7	1	9	n/a	1223.633657	n/a
1224.559171	1.3171408	1	18	1	1	1	2	8	2	9	n/a	1224.950899	n/a
1225.88449	1.3256639	1	19	1	1	1	2	9	1	9	n/a	1226.284743	n/a
1227.218508	1.3171944	1	20	1	1	1	2	10	1	9	n/a	1227.61036	n/a
1228.543919	1.3173037	1	21	1	1	1	2	11	2	9	n/a	1228.944209	n/a
1229.869579	1.3254596	1	22	1	1	1	2	12	1	9	n/a	1230.269698	n/a
1231.203381	1.3088982	1	23	1	1	1	2	13	1	9	1	1231.603616	0.7007286
1232.520704	1.2921046	1	24	1	1	1	2	14	1	9	1	1232.912442	0.6172617
1233.820999	1.3172824	1	25	1	1	1	2	15	1	8	1	1234.221273	0.583987
1235.146718	1.2921745	1	26	1	1	1	2	16	1	8	1	1235.538495	0.6338997
1236.447178	1.3171484	1	27	1	1	1	2	17	1	8	1	1236.847334	0.6360681
1237.772762	1.3087461	1	28	1	1	1	2	18	1	7	1	1238.164567	0.6760639
1239.241667	1.2491887	1	29	1	1	9	3	1	3	7	n/a	n/a	n/a
1240.499147	1.2419639	1	30	1	1	9	3	2	3	7	n/a	n/a	n/a
1241.749519	1.2420108	1	31	1	1	9	3	3	3	7	n/a	n/a	n/a
1243.000068	1.2421488	1	32	1	1	9	3	4	3	7	n/a	n/a	n/a
1244.250462	1.2422734	1	33	1	1	9	3	5	3	7	n/a	n/a	n/a
1245.501096	1.2420254	1	34	1	1	9	3	6	3	7	n/a	n/a	n/a
1246.75145	1.2421797	1	35	1	1	9	3	7	3	7	n/a	n/a	n/a
1248.002008	1.2419575	1	36	1	1	9	3	8	3	7	n/a	n/a	n/a
1249.252348	1.2421664	1	37	1	1	9	3	9	3	7	n/a	n/a	n/a
1250.502992	1.2419553	1	38	1	1	9	3	10	3	7	n/a	n/a	n/a
1251.911845	1.3170936	1	39	1	1	3	4	1	2	7	1	1252.304032	0.6585121
1253.237417	1.3004514	1	40	1	1	3	4	2	1	7	1	1253.629029	0.583735
1254.546101	1.3171606	1	41	1	1	3	4	3	1	6	1	1254.946308	0.5252826
1255.871738	1.3172164	1	42	1	1	3	4	4	1	6	1	1256.263512	0.5503656
1257.197225	1.3088602	1	43	1	1	3	4	5	2	6	1	1257.597378	0.6255067
1258.514637	1.3086695	1	44	1	1	3	4	6	1	5	1	1258.914565	0.6169617
1259.831538	1.3173506	1	45	1	1	3	4	7	1	5	1	1260.231837	0.6585699
1261.157223	1.3171752	1	46	1	1	3	4	8	2	5	1	1261.549015	0.6922552
1262.482675	1.3255823	1	47	1	1	3	4	9	2	6	0	1262.882834	0.6340676
1263.816725	1.3169243	1	48	1	1	3	4	10	2	6	1	1264.208453	0.8423147
1265.142124	1.3171575	1	49	1	1	3	4	11	2	6	n/a	1265.542305	n/a
1266.467678	1.3254922	1	50	1	1	3	4	12	1	7	0	1266.867762	0.6187442
1267.801524	1.3088382	1	51	1	1	3	4	13	1	8	0	1268.20174	0.6252052
1269.118751	1.2920526	1	52	1	1	3	4	14	2	9	0	1269.510556	0.7421533
1270.419206	1.3172551	1	53	1	1	3	4	15	1	10	0	1270.819476	0.725282
1271.744854	1.2920585	1	54	1	1	3	4	16	2	11	0	1272.136601	0.7004431
1273.045337	1.3171905	1	55	1	1	3	4	17	2	12	0	1273.445522	0.7670684
1274.370866	1.3088315	1	56	1	1	3	4	18	1	12	n/a	1274.762693	n/a
1275.846707	1.2420307	1	57	1	1	9	5	1	3	12	n/a	n/a	n/a
1277.097057	1.2421567	1	58	1	1	9	5	2	3	12	n/a	n/a	n/a
1278.347425	1.2422106	1	59	1	1	9	5	3	3	12	n/a	n/a	n/a
1279.598062	1.2422671	1	60	1	1	9	5	4	3	12	n/a	n/a	n/a
1280.848586	1.2421903	1	61	1	1	9	5	5	3	12	n/a	n/a	n/a
1282.099189	1.242174	1	62	1	1	9	5	6	3	12	n/a	n/a	n/a
1283.349669	1.2421375	1	63	1	1	9	5	7	3	12	n/a	n/a	n/a
1284.600202	1.2421232	1	64	1	1	9	5	8	3	12	n/a	n/a	n/a
1285.850676	1.2422118	1	65	1	1	9	5	9	3	12	n/a	n/a	n/a
1287.101218	1.2421653	1	66	1	1	9	5	10	3	12	n/a	n/a	n/a
1288.518375	1.283767	1	67	1	1	5	6	1	2	12	1	1288.885248	0.5921343
1289.810561	1.267023	1	68	1	1	5	6	2	2	12	1	1290.177218	0.5422907
1291.08591	1.2921964	1	69	1	1	5	6	3	2	11	1	1291.46946	0.5752487
1292.386753	1.2752062	1	70	1	1	5	6	4	1	11	1	1292.753175	0.608719
1293.670204	1.2839221	1	71	1	1	5	6	5	2	11	1	1294.045598	0.6334644
1294.962606	1.2754426	1	72	1	1	5	6	6	2	10	1	1295.337612	0.575285
1296.246267	1.2756259	1	73	1	1	5	6	7	1	10	1	1296.613128	0.4586278
1297.530375	1.2753709	1	74	1	1	5	6	8	1	11	0	1297.897105	0.5334947
1298.814137	1.2837731	1	75	1	1	5	6	9	1	11	1	1299.180981	0.4835479
1300.106287	1.2754124	1	76	1	1	5	6	10	1	11	1	1300.472934	0.5754069
1301.390066	1.275482	1	77	1	1	5	6	11	1	10	1	1301.756873	0.5586609
1302.673998	1.2837518	1	78	1	1	5	6	12	2	10	1	1303.040697	0.4671241
1303.966118	1.2754249	1	79	1	1	5	6	13	1	10	1	1304.332896	0.5670045
1305.250173	1.2670149	1	80	1	1	5	6	14	1	9	1	1305.616742	0.6170152
1306.525509	1.2504445	1	81	1	1	5	6	15	2	9	1	1306.892329	0.5002404
1307.784373	1.2671867	1	82	1	1	5	6	16	2	9	1	1308.151103	0.5668825
1309.059839	1.2588381	1	83	1	1	5	6	17	1	8	1	1309.434982	0.5502542
1310.327162	1.2754202	1	84	1	1	5	6	18	1	8	1	1310.693874	0.6003078
1311.753102	1.2419541	1	85	1	1	9	7	1	3	8	n/a	n/a	n/a
1313.003441	1.2419921	1	86	1	1	9	7	2	3	8	n/a	n/a	n/a
1314.253743	1.2422263	1	87	1	1	9	7	3	3	8	n/a	n/a	n/a
1315.504337	1.2421442	1	88	1	1	9	7	4	3	8	n/a	n/a	n/a
1316.75483	1.2420563	1	89	1	1	9	7	5	3	8	n/a	n/a	n/a
1318.005341	1.2420626	1	90	1	1	9	7	6	3	8	n/a	n/a	n/a
1319.255797	1.2421792	1	91	1	1	9	7	7	3	8	n/a	n/a	n/a
1320.506296	1.2421121	1	92	1	1	9	7	8	3	8	n/a	n/a	n/a
1321.756783	1.2421867	1	93	1	1	9	7	9	3	8	n/a	n/a	n/a
1323.007329	1.2420022	1	94	1	1	9	7	10	3	8	n/a	n/a	n/a
1324.424534	1.283854	1	95	1	1	7	8	1	1	8	1	1324.791418	0.5012183
1325.716762	1.2669948	1	96	1	1	7	8	2	1	7	1	1326.083409	0.5752866
1326.992033	1.2922585	1	97	1	1	7	8	3	1	7	1	1327.375661	0.5418932
1328.292673	1.2753975	1	98	1	1	7	8	4	1	7	1	1328.659418	0.5836213
1329.576503	1.283742	1	99	1	1	7	8	5	1	7	1	1329.951629	0.8171847
1330.86874	1.2753145	1	100	1	1	7	8	6	2	7	0	1331.243817	0.7673552
1332.152484	1.2755954	1	101	1	1	7	8	7	2	8	0	1332.519314	0.6504172
1333.436471	1.2753258	1	102	1	1	7	8	8	1	9	0	1333.803129	0.6255883
1334.720184	1.342492	1	103	1	1	7	8	9	1	10	0	1335.08712	0.692371
1336.07107	1.3169882	1	104	1	1	7	8	10	2	11	0	1336.462627	0.658654
1337.396315	1.2755489	1	105	1	1	7	8	11	2	11	n/a	1337.763233	n/a
1338.680218	1.2837635	1	106	1	1	7	8	12	1	11	n/a	1339.046964	n/a
1339.972227	1.2755748	1	107	1	1	7	8	13	1	11	n/a	1340.339144	n/a
1341.256278	1.2671547	1	108	1	1	7	8	14	1	11	n/a	1341.622969	n/a
1342.531693	1.2755567	1	109	1	1	7	8	15	1	11	n/a	1342.898533	n/a
1343.815616	1.2671407	1	110	1	1	7	8	16	2	11	n/a	1344.182382	n/a
1345.090972	1.2839398	1	111	1	1	7	8	17	2	11	n/a	1345.46629	n/a
1346.383441	1.2753784	1	112	1	1	7	8	18	2	11	n/a	1346.749996	n/a
1347.818641	1.2496984	1	113	1	1	9	9	1	3	11	n/a	n/a	n/a
1349.076469	1.2423302	1	114	1	1	9	9	2	3	11	n/a	n/a	n/a
1350.327113	1.250162	1	115	1	1	9	9	3	3	11	n/a	n/a	n/a
1351.585667	1.2421352	1	116	1	1	9	9	4	3	11	n/a	n/a	n/a
1352.836089	1.2422008	1	117	1	1	9	9	5	3	11	n/a	n/a	n/a
1354.086692	1.2420221	1	118	1	1	9	9	6	3	11	n/a	n/a	n/a
1355.337034	1.2423052	1	119	1	1	9	9	7	3	11	n/a	n/a	n/a
1356.587717	1.2421351	1	120	1	1	9	9	8	3	11	n/a	n/a	n/a
1357.838213	1.2421991	1	121	1	1	9	9	9	3	11	n/a	n/a	n/a
1359.08859	1.24227	1	122	1	1	9	9	10	3	11	n/a	n/a	n/a
