onset	duration	run_number	trial_number	att_task	fix_direction	bar_direction	bar_period	bar_step	fix_noise_ori	stim_noise_ori	fix_stair_val	stim_stair_val	response_val	probe_time	reaction_time
1559734996	1.291479826	2	1	2	4	9	1	1	3	3	3	9	n/a	n/a	n/a
1559734997	1.291796923	2	2	2	4	9	1	2	3	3	3	9	n/a	n/a	n/a
1559734998	1.291661978	2	3	2	4	9	1	3	3	3	3	9	n/a	n/a	n/a
1559735000	1.291701078	2	4	2	4	9	1	4	3	3	3	9	n/a	n/a	n/a
1559735001	1.291625977	2	5	2	4	9	1	5	3	3	3	9	n/a	n/a	n/a
1559735002	1.291735888	2	6	2	4	9	1	6	3	3	3	9	n/a	n/a	n/a
1559735003	1.29166913	2	7	2	4	9	1	7	3	3	3	9	n/a	n/a	n/a
1559735005	1.29166007	2	8	2	4	9	1	8	3	3	3	9	n/a	n/a	n/a
1559735006	1.291615963	2	9	2	4	9	1	9	3	3	3	9	n/a	n/a	n/a
1559735007	1.291657925	2	10	2	4	9	1	10	3	3	3	9	n/a	n/a	n/a
1559735009	1.30731678	2	11	2	4	1	2	1	1	2	3	9	n/a	1559735009	n/a
1559735010	1.299957991	2	12	2	4	1	2	2	2	2	3	9	1	1559735010	0.1502702236
1559735011	1.308367014	2	13	2	4	1	2	3	2	1	3	10	0	1559735012	0.08344316483
1559735013	1.300002098	2	14	2	4	1	2	4	2	2	3	10	1	1559735013	0.5501799583
1559735014	1.300082922	2	15	2	4	1	2	5	1	1	3	10	1	1559735014	0.5913012028
1559735015	1.291676998	2	16	2	4	1	2	6	1	2	3	9	1	1559735016	0.5835220814
1559735017	1.300009012	2	17	2	4	1	2	7	2	1	3	9	1	1559735017	0.6920740604
1559735018	1.300079107	2	18	2	4	1	2	8	1	1	3	9	1	1559735018	0.7835981846
1559735019	1.299988985	2	19	2	4	1	2	9	2	1	3	9	0	1559735019	0.9177401066
1559735020	1.299999952	2	20	2	4	1	2	10	2	1	3	10	1	1559735021	0.6168849468
1559735022	1.30000782	2	21	2	4	1	2	11	1	1	3	10	1	1559735022	0.6176998615
1559735023	1.300003052	2	22	2	4	1	2	12	1	1	3	9	1	1559735023	0.5837349892
1559735024	1.300007105	2	23	2	4	1	2	13	1	2	3	9	1	1559735025	0.4503569603
1559735026	1.299996853	2	24	2	4	1	2	14	1	2	3	10	0	1559735026	0.8502409458
1559735027	1.300092936	2	25	2	4	1	2	15	2	1	3	10	1	1559735027	0.6001348495
1559735028	1.300037146	2	26	2	4	1	2	16	1	1	3	10	1	1559735029	0.6750230789
1559735030	1.299995899	2	27	2	4	1	2	17	1	1	3	9	1	1559735030	0.6334459782
1559735031	1.299972057	2	28	2	4	1	2	18	2	2	3	9	1	1559735031	0.5502769947
1559735032	1.299989939	2	29	2	4	1	2	19	1	1	3	9	1	1559735033	0.6584699154
1559735034	1.299993992	2	30	2	4	1	2	20	2	2	3	8	1	1559735034	0.6085011959
1559735035	1.30000186	2	31	2	4	1	2	21	1	2	3	8	1	1559735035	0.7251229286
1559735036	1.299998045	2	32	2	4	1	2	22	1	1	3	8	1	1559735036	0.6167159081
1559735037	1.299998045	2	33	2	4	1	2	23	2	1	3	9	0	1559735038	0.5750899315
1559735039	1.300004959	2	34	2	4	1	2	24	2	1	3	9	1	1559735039	0.6501100063
1559735040	1.29996109	2	35	2	4	1	2	25	2	2	3	9	1	1559735040	0.6250519753
1559735041	1.300075054	2	36	2	4	1	2	26	2	1	3	10	0	1559735042	0.525151968
1559735043	1.299988985	2	37	2	4	1	2	27	1	2	3	10	1	1559735043	0.5585501194
1559735044	1.300004959	2	38	2	4	1	2	28	1	1	3	10	1	1559735044	0.6584510803
1559735045	1.300076008	2	39	2	4	1	2	29	1	2	3	9	1	1559735046	0.7917377949
1559735047	1.308432102	2	40	2	4	1	2	30	1	1	3	10	0	1559735047	0.8669979572
1559735048	1.299993992	2	41	2	4	1	2	31	2	2	3	10	1	1559735048	0.7335247993
1559735049	1.300048113	2	42	2	4	1	2	32	2	1	3	11	0	1559735050	0.7002029419
1559735051	1.291286945	2	43	2	4	9	3	1	3	3	3	11	n/a	n/a	n/a
1559735052	1.291644812	2	44	2	4	9	3	2	3	3	3	11	n/a	n/a	n/a
1559735053	1.291752815	2	45	2	4	9	3	3	3	3	3	11	n/a	n/a	n/a
1559735054	1.291664839	2	46	2	4	9	3	4	3	3	3	11	n/a	n/a	n/a
1559735056	1.29176116	2	47	2	4	9	3	5	3	3	3	11	n/a	n/a	n/a
1559735057	1.291656971	2	48	2	4	9	3	6	3	3	3	11	n/a	n/a	n/a
1559735058	1.291665077	2	49	2	4	9	3	7	3	3	3	11	n/a	n/a	n/a
1559735060	1.29167223	2	50	2	4	9	3	8	3	3	3	11	n/a	n/a	n/a
1559735061	1.291662931	2	51	2	4	9	3	9	3	3	3	11	n/a	n/a	n/a
1559735062	1.291676998	2	52	2	4	9	3	10	3	3	3	11	n/a	n/a	n/a
1559735064	1.300067902	2	53	2	4	3	4	1	2	1	3	11	1	1559735064	0.3336749077
1559735065	1.31664896	2	54	2	4	3	4	2	1	2	3	12	0	1559735065	0.2418107986
1559735066	1.300007105	2	55	2	4	3	4	3	1	2	3	12	1	1559735067	0.1667859554
1559735068	1.300087214	2	56	2	4	3	4	4	2	1	3	12	1	1559735068	0.5917160511
1559735069	1.300088167	2	57	2	4	3	4	5	1	2	3	11	1	1559735069	0.5834300518
1559735070	1.299983025	2	58	2	4	3	4	6	1	2	3	11	1	1559735070	0.6251358986
1559735071	1.299998999	2	59	2	4	3	4	7	1	1	3	11	1	1559735072	0.6833660603
1559735073	1.299990892	2	60	2	4	3	4	8	1	1	3	10	1	1559735073	0.6418337822
1559735074	1.300002813	2	61	2	4	3	4	9	1	1	3	10	1	1559735074	0.6251249313
1559735075	1.291692972	2	62	2	4	3	4	10	2	1	3	10	1	1559735076	0.6751360893
1559735077	1.300090075	2	63	2	4	3	4	11	2	2	3	9	1	1559735077	0.6500740051
1559735078	1.299984932	2	64	2	4	3	4	12	1	2	3	9	1	1559735078	0.6584608555
1559735079	1.299991846	2	65	2	4	3	4	13	2	1	3	9	1	1559735080	0.6167309284
1559735081	1.300075054	2	66	2	4	3	4	14	1	1	3	8	1	1559735081	0.6584420204
1559735082	1.299997807	2	67	2	4	3	4	15	1	2	3	8	1	1559735082	0.7001149654
1559735083	1.299998045	2	68	2	4	3	4	16	2	2	3	9	0	1559735084	0.500161171
1559735085	1.299993038	2	69	2	4	3	4	17	1	2	3	9	1	1559735085	0.5501790047
1559735086	1.299992085	2	70	2	4	3	4	18	1	2	3	10	0	1559735086	0.6502439976
1559735087	1.291653156	2	71	2	4	9	5	1	3	3	3	10	n/a	n/a	n/a
1559735088	1.291678905	2	72	2	4	9	5	2	3	3	3	10	n/a	n/a	n/a
1559735090	1.291671038	2	73	2	4	9	5	3	3	3	3	10	n/a	n/a	n/a
1559735091	1.291666031	2	74	2	4	9	5	4	3	3	3	10	n/a	n/a	n/a
1559735092	1.291666985	2	75	2	4	9	5	5	3	3	3	10	n/a	n/a	n/a
1559735094	1.291620016	2	76	2	4	9	5	6	3	3	3	10	n/a	n/a	n/a
1559735095	1.291749954	2	77	2	4	9	5	7	3	3	3	10	n/a	n/a	n/a
1559735096	1.291682959	2	78	2	4	9	5	8	3	3	3	10	n/a	n/a	n/a
1559735098	1.291675091	2	79	2	4	9	5	9	3	3	3	10	n/a	n/a	n/a
1559735099	1.291671991	2	80	2	4	9	5	10	3	3	3	10	n/a	n/a	n/a
1559735100	1.300048113	2	81	2	4	5	6	1	1	2	3	10	1	1559735100	0.8338630199
1559735101	1.291744947	2	82	2	4	5	6	2	2	2	3	11	0	1559735102	0.5837140083
1559735103	1.291670084	2	83	2	4	5	6	3	1	1	3	11	1	1559735103	0.8335549831
1559735104	1.29994607	2	84	2	4	5	6	4	1	1	3	11	1	1559735104	0.6917960644
1559735105	1.299998045	2	85	2	4	5	6	5	2	2	3	12	0	1559735106	0.6418640614
1559735107	1.299988031	2	86	2	4	5	6	6	2	1	3	12	1	1559735107	0.6168210506
1559735108	1.300011158	2	87	2	4	5	6	7	1	1	3	12	1	1559735108	0.7251141071
1559735109	1.299998045	2	88	2	4	5	6	8	1	1	3	11	1	1559735110	0.5251348019
1559735111	1.299998999	2	89	2	4	5	6	9	1	1	3	11	1	1559735111	0.6333539486
1559735112	1.299954891	2	90	2	4	5	6	10	2	2	3	11	1	1559735112	0.5750129223
1559735113	1.300084114	2	91	2	4	5	6	11	1	2	3	10	1	1559735114	0.6416859627
1559735115	1.299981117	2	92	2	4	5	6	12	2	2	3	11	0	1559735115	0.5917739868
1559735116	1.299994946	2	93	2	4	5	6	13	1	2	3	11	1	1559735116	0.6501231194
1559735117	1.299995184	2	94	2	4	5	6	14	2	1	3	11	1	1559735117	0.5585289001
1559735118	1.299986124	2	95	2	4	5	6	15	1	1	3	10	1	1559735119	0.5750329494
1559735120	1.300004005	2	96	2	4	5	6	16	2	1	3	10	1	1559735120	0.6167221069
1559735121	1.300093174	2	97	2	4	5	6	17	1	2	3	10	1	1559735121	0.5583648682
1559735122	1.299996853	2	98	2	4	5	6	18	2	2	3	9	1	1559735123	0.5334961414
1559735124	1.29994297	2	99	2	4	5	6	19	2	2	3	9	1	1559735124	0.6084699631
1559735125	1.299965858	2	100	2	4	5	6	20	2	1	3	9	1	1559735125	0.6084799767
1559735126	1.299993038	2	101	2	4	5	6	21	2	1	3	8	1	1559735127	0.6833808422
1559735128	1.300005913	2	102	2	4	5	6	22	1	1	3	8	1	1559735128	0.7585008144
1559735129	1.299935102	2	103	2	4	5	6	23	1	2	3	9	0	1559735129	0.8501329422
1559735130	1.291750908	2	104	2	4	5	6	24	2	2	3	9	1	1559735131	0.758384943
1559735132	1.299995899	2	105	2	4	5	6	25	2	2	3	9	1	1559735132	0.7001919746
1559735133	1.299989939	2	106	2	4	5	6	26	2	1	3	8	1	1559735133	0.6333827972
1559735134	1.300002098	2	107	2	4	5	6	27	2	1	3	8	1	1559735134	0.7001841068
1559735135	1.291627169	2	108	2	4	5	6	28	1	2	3	8	1	1559735136	0.683380127
1559735137	1.299978018	2	109	2	4	5	6	29	2	2	3	9	0	1559735137	0.8667089939
1559735138	1.299990892	2	110	2	4	5	6	30	1	1	3	10	0	1559735138	0.6167321205
1559735139	1.299993992	2	111	2	4	5	6	31	2	2	3	10	1	1559735140	0.6584620476
1559735141	1.291660786	2	112	2	4	5	6	32	2	1	3	11	0	1559735141	0.6584780216
1559735142	1.291796923	2	113	2	4	9	7	1	3	3	3	11	n/a	n/a	n/a
1559735143	1.291696072	2	114	2	4	9	7	2	3	3	3	11	n/a	n/a	n/a
1559735145	1.291658878	2	115	2	4	9	7	3	3	3	3	11	n/a	n/a	n/a
1559735146	1.29174304	2	116	2	4	9	7	4	3	3	3	11	n/a	n/a	n/a
1559735147	1.291661978	2	117	2	4	9	7	5	3	3	3	11	n/a	n/a	n/a
1559735148	1.291680098	2	118	2	4	9	7	6	3	3	3	11	n/a	n/a	n/a
1559735150	1.291605949	2	119	2	4	9	7	7	3	3	3	11	n/a	n/a	n/a
1559735151	1.291741133	2	120	2	4	9	7	8	3	3	3	11	n/a	n/a	n/a
1559735152	1.291759014	2	121	2	4	9	7	9	3	3	3	11	n/a	n/a	n/a
1559735154	1.291666031	2	122	2	4	9	7	10	3	3	3	11	n/a	n/a	n/a
1559735155	1.300060987	2	123	2	4	7	8	1	1	1	3	11	1	1559735155	0.4001419544
1559735156	1.300017118	2	124	2	4	7	8	2	1	2	3	12	0	1559735157	0.6418540478
1559735158	1.299996138	2	125	2	4	7	8	3	1	1	3	12	1	1559735158	0.5917110443
1559735159	1.299987793	2	126	2	4	7	8	4	2	1	3	12	1	1559735159	0.5668420792
1559735160	1.300045967	2	127	2	4	7	8	5	1	1	3	11	1	1559735161	0.5668170452
1559735162	1.299993992	2	128	2	4	7	8	6	2	1	3	11	1	1559735162	0.583381176
1559735163	1.299937963	2	129	2	4	7	8	7	2	1	3	11	1	1559735163	0.6584570408
1559735164	1.30000782	2	130	2	4	7	8	8	2	1	3	10	1	1559735164	0.5584981441
1559735165	1.299937963	2	131	2	4	7	8	9	1	1	3	10	1	1559735166	0.7167081833
1559735167	1.291742086	2	132	2	4	7	8	10	1	1	3	10	1	1559735167	0.616797924
1559735168	1.299994946	2	133	2	4	7	8	11	1	1	3	9	1	1559735168	0.6002159119
1559735169	1.299994946	2	134	2	4	7	8	12	2	2	3	9	n/a	1559735170	n/a
1559735171	1.291598082	2	135	2	4	7	8	13	1	1	3	9	1	1559735171	0.8751039505
1559735172	1.299952984	2	136	2	4	7	8	14	1	2	3	9	n/a	1559735172	n/a
1559735173	1.308405161	2	137	2	4	7	8	15	1	2	3	9	n/a	1559735174	n/a
1559735175	1.299988031	2	138	2	4	7	8	16	2	1	3	9	1	1559735175	0.9084970951
1559735176	1.300015926	2	139	2	4	7	8	17	1	2	3	9	0	1559735176	0.9585680962
1559735177	1.300027132	2	140	2	4	7	8	18	1	1	3	10	n/a	1559735178	n/a
1559735179	1.291676044	2	141	2	4	9	9	1	3	3	3	10	n/a	n/a	n/a
1559735180	1.291659117	2	142	2	4	9	9	2	3	3	3	10	n/a	n/a	n/a
1559735181	1.291661024	2	143	2	4	9	9	3	3	3	3	10	n/a	n/a	n/a
1559735182	1.291610956	2	144	2	4	9	9	4	3	3	3	10	n/a	n/a	n/a
1559735184	1.291615963	2	145	2	4	9	9	5	3	3	3	10	n/a	n/a	n/a
1559735185	1.291692019	2	146	2	4	9	9	6	3	3	3	10	n/a	n/a	n/a
1559735186	1.291657925	2	147	2	4	9	9	7	3	3	3	10	n/a	n/a	n/a
1559735188	1.291666031	2	148	2	4	9	9	8	3	3	3	10	n/a	n/a	n/a
1559735189	1.291661978	2	149	2	4	9	9	9	3	3	3	10	n/a	n/a	n/a
1559735190	1.291689873	2	150	2	4	9	9	10	3	3	3	10	n/a	n/a	n/a
