onset	duration	run_number	trial_number	att_task	fix_direction	bar_direction	bar_period	bar_step	fix_noise_ori	stim_noise_ori	fix_stair_val	stim_stair_val	response_val	probe_time	reaction_time
100691.6915	16.63112309	1	1	1	1	9	1	1	3	3	15	15	n/a	n/a	n/a
100708.5073	13.85813995	1	2	1	1	9	1	2	3	3	15	15	n/a	n/a	n/a
100722.5488	14.17927224	1	3	1	1	9	1	3	3	3	15	15	n/a	n/a	n/a
100736.9125	13.8357687	1	4	1	1	9	1	4	3	3	15	15	n/a	n/a	n/a
100750.9225	13.61784293	1	5	1	1	9	1	5	3	3	15	15	n/a	n/a	n/a
100764.7181	13.68425601	1	6	1	1	9	1	6	3	3	15	15	n/a	n/a	n/a
100778.58	13.69973288	1	7	1	1	9	1	7	3	3	15	15	n/a	n/a	n/a
100792.4677	14.10320535	1	8	1	1	9	1	8	3	3	15	15	n/a	n/a	n/a
100806.7558	14.74206849	1	9	1	1	9	1	9	3	3	15	15	n/a	n/a	n/a
100821.6698	13.714391	1	10	1	1	9	1	10	3	3	15	15	n/a	n/a	n/a
100835.6059	14.15013405	1	11	1	1	1	2	1	1	2	15	15	n/a	100839.2882	n/a
100849.9392	14.4607944	1	12	1	1	1	2	2	1	2	15	15	n/a	100853.7006	n/a
100864.5969	15.14479105	1	13	1	1	1	2	3	1	1	15	15	0	100868.6048	0.406902173
100879.9348	15.35441038	1	14	1	1	1	2	4	2	1	15	15	1	100883.9592	0.406877547
100895.4862	15.97072676	1	15	1	1	1	2	5	1	1	15	15	n/a	100899.5792	n/a
100911.6568	15.48279157	1	16	1	1	1	2	6	2	2	15	15	n/a	100915.693	n/a
100927.344	15.24618055	1	17	1	1	1	2	7	2	1	15	15	n/a	100931.3774	n/a
100942.7895	15.41994031	1	18	1	1	1	2	8	2	2	15	15	n/a	100946.8144	n/a
100958.4107	15.05198919	1	19	1	1	1	2	9	1	1	15	15	n/a	100962.411	n/a
100973.6637	15.1666278	1	20	1	1	1	2	10	2	2	15	15	n/a	100977.6243	n/a
100989.0257	15.04659544	1	21	1	1	1	2	11	2	1	15	15	n/a	100992.966	n/a
101004.2691	15.07499379	1	22	1	1	1	2	12	2	2	15	15	n/a	101008.2094	n/a
101019.5418	15.10839656	1	23	1	1	1	2	13	2	2	15	15	n/a	101023.4945	n/a
101034.8504	15.16848253	1	24	1	1	1	2	14	2	2	15	15	n/a	101038.8	n/a
101050.215	15.56020738	1	25	1	1	1	2	15	2	2	15	15	n/a	101054.2	n/a
101065.9768	14.80715176	1	26	1	1	1	2	16	1	2	15	15	n/a	101069.9632	n/a
101080.9804	14.36630495	1	27	1	1	1	2	17	1	2	15	15	n/a	101084.7467	n/a
101095.5321	14.27196566	1	28	1	1	1	2	18	1	2	15	15	n/a	101099.2261	n/a
101110.0011	14.014905	1	29	1	1	9	3	1	3	3	15	15	n/a	n/a	n/a
101124.1833	14.05677227	1	30	1	1	9	3	2	3	3	15	15	n/a	n/a	n/a
101138.42	14.01580102	1	31	1	1	9	3	3	3	3	15	15	n/a	n/a	n/a
101152.6201	13.73511978	1	32	1	1	9	3	4	3	3	15	15	n/a	n/a	n/a
101166.5368	13.62143673	1	33	1	1	9	3	5	3	3	15	15	n/a	n/a	n/a
101180.3362	13.76606927	1	34	1	1	9	3	6	3	3	15	15	n/a	n/a	n/a
101194.2765	13.53420839	1	35	1	1	9	3	7	3	3	15	15	n/a	n/a	n/a
101207.9835	13.43143996	1	36	1	1	9	3	8	3	3	15	15	n/a	n/a	n/a
101221.5861	13.44858989	1	37	1	1	9	3	9	3	3	15	15	n/a	n/a	n/a
101235.2116	13.59879575	1	38	1	1	9	3	10	3	3	15	15	n/a	n/a	n/a
101249.0081	14.04506541	1	39	1	1	5	4	1	2	1	15	15	n/a	101252.6751	n/a
101263.2394	14.16905097	1	40	1	1	5	4	2	1	2	15	15	n/a	101266.9228	n/a
101277.5922	14.86727148	1	41	1	1	5	4	3	1	2	15	15	n/a	101281.4877	n/a
101292.6507	14.76572752	1	42	1	1	5	4	4	2	1	15	15	n/a	101296.5982	n/a
101307.6014	15.03514548	1	43	1	1	5	4	5	1	2	15	15	n/a	101311.5365	n/a
101322.8369	14.98588911	1	44	1	1	5	4	6	1	1	15	15	n/a	101326.8533	n/a
101338.02	15.38392794	1	45	1	1	5	4	7	2	2	15	15	n/a	101342.0705	n/a
101353.6064	15.18607342	1	46	1	1	5	4	8	1	1	15	15	n/a	101357.6899	n/a
101368.9917	15.48141904	1	47	1	1	5	4	9	1	2	15	15	n/a	101373.0732	n/a
101384.6739	15.08377964	1	48	1	1	5	4	10	2	1	15	15	n/a	101388.7265	n/a
101399.9535	15.27784128	1	49	1	1	5	4	11	1	2	15	15	n/a	101404.0058	n/a
101415.4296	15.34386414	1	50	1	1	5	4	12	1	2	15	15	n/a	101419.4391	n/a
101430.9745	16.18833312	1	51	1	1	5	4	13	2	2	15	15	n/a	101435.0219	n/a
101447.3782	14.96032521	1	52	1	1	5	4	14	2	1	15	15	n/a	101451.437	n/a
101462.5344	15.15835441	1	53	1	1	5	4	15	1	2	15	15	n/a	101466.4261	n/a
101477.8869	15.01642151	1	54	1	1	5	4	16	1	2	15	15	0	101481.7643	8.597930208
101493.0919	14.82589173	1	55	1	1	5	4	17	2	2	15	15	1	101496.8347	0.0003547200031
101508.1292	14.80482838	1	56	1	1	5	4	18	1	1	15	15	n/a	101512.0385	n/a
101523.1457	13.67220506	1	57	1	1	9	5	1	3	3	15	15	n/a	n/a	n/a
101537.0008	13.65556865	1	58	1	1	9	5	2	3	3	15	15	n/a	n/a	n/a
101550.8386	13.77668665	1	59	1	1	9	5	3	3	3	15	15	n/a	n/a	n/a
101564.787	13.94734153	1	60	1	1	9	5	4	3	3	15	15	n/a	n/a	n/a
101578.9198	13.88303721	1	61	1	1	9	5	5	3	3	15	15	n/a	n/a	n/a
101592.984	14.01953061	1	62	1	1	9	5	6	3	3	15	15	n/a	n/a	n/a
101607.1911	14.2436336	1	63	1	1	9	5	7	3	3	15	15	n/a	n/a	n/a
101621.614	14.26560707	1	64	1	1	9	5	8	3	3	15	15	n/a	n/a	n/a
101636.0664	14.84109082	1	65	1	1	9	5	9	3	3	15	15	n/a	n/a	n/a
101651.0887	13.46452352	1	66	1	1	9	5	10	3	3	15	15	n/a	n/a	n/a
101664.7406	13.88181054	1	67	1	1	1	6	1	1	1	15	15	n/a	101668.3196	n/a
101678.8071	14.19282085	1	68	1	1	1	6	2	1	1	15	15	n/a	101682.5262	n/a
101693.1868	14.55558475	1	69	1	1	1	6	3	2	2	15	15	n/a	101696.9497	n/a
101707.9298	14.73189221	1	70	1	1	1	6	4	1	2	15	15	n/a	101711.7745	n/a
101722.8531	14.87858575	1	71	1	1	1	6	5	2	2	15	15	n/a	101726.7453	n/a
101737.9187	14.84590572	1	72	1	1	1	6	6	1	1	15	15	n/a	101741.8478	n/a
101752.9546	15.22815449	1	73	1	1	1	6	7	2	2	15	15	n/a	101756.9288	n/a
101768.3796	15.2190053	1	74	1	1	1	6	8	2	1	15	15	n/a	101772.3954	n/a
101783.7946	15.2914559	1	75	1	1	1	6	9	1	2	15	15	n/a	101787.8044	n/a
101799.3027	15.6366998	1	76	1	1	1	6	10	1	1	15	15	0	101803.4315	8.687664019
101815.141	15.50585453	1	77	1	1	1	6	11	2	2	15	15	1	101819.2056	0.0003577210009
101830.8412	15.51602924	1	78	1	1	1	6	12	2	2	15	15	1	101834.9053	5.247314467
101846.5537	15.50285259	1	79	1	1	1	6	13	2	2	14	15	1	101850.6247	0.80744338
101862.2542	15.08984166	1	80	1	1	1	6	14	1	1	15	15	0	101866.2043	0.787256723
101877.5402	14.9659953	1	81	1	1	1	6	15	2	1	15	15	1	101881.5583	1.969538528
101892.6983	14.62733232	1	82	1	1	1	6	16	1	2	15	15	0	101896.5514	1.341251945
101907.5187	14.29771202	1	83	1	1	1	6	17	1	2	15	15	0	101911.2843	0.183901158
101921.993	13.88722191	1	84	1	1	1	6	18	1	2	15	15	0	101925.6102	0.0002335930039
101936.0703	13.56481626	1	85	1	1	9	7	1	3	3	15	15	n/a	n/a	n/a
101949.8102	13.64792491	1	86	1	1	9	7	2	3	3	15	15	n/a	n/a	n/a
101963.6359	13.94173165	1	87	1	1	9	7	3	3	3	15	15	n/a	n/a	n/a
101977.7635	13.51729497	1	88	1	1	9	7	4	3	3	15	15	n/a	n/a	n/a
101991.4494	13.6384367	1	89	1	1	9	7	5	3	3	15	15	n/a	n/a	n/a
102005.2636	13.53607968	1	90	1	1	9	7	6	3	3	15	15	n/a	n/a	n/a
102018.9675	13.88849529	1	91	1	1	9	7	7	3	3	15	15	n/a	n/a	n/a
102033.0361	13.95359316	1	92	1	1	9	7	8	3	3	15	15	n/a	n/a	n/a
102047.1683	13.86408414	1	93	1	1	9	7	9	3	3	15	15	n/a	n/a	n/a
102061.2186	13.95294146	1	94	1	1	9	7	10	3	3	15	15	n/a	n/a	n/a
102075.3607	14.27812467	1	95	1	1	5	8	1	1	1	15	15	n/a	102079.0612	n/a
102089.8265	14.37012511	1	96	1	1	5	8	2	1	1	15	15	0	102093.5789	1.503755093
102104.3782	14.7054081	1	97	1	1	5	8	3	1	1	15	15	0	102108.2346	1.16639633
102119.2739	15.03153334	1	98	1	1	5	8	4	1	2	15	15	0	102123.2745	0.0002839829976
102134.5028	15.11928952	1	99	1	1	5	8	5	1	2	15	15	0	102138.4993	0.387881854
102149.8271	15.28391783	1	100	1	1	5	8	6	1	2	15	15	0	102153.8496	3.58748415
102165.3047	15.24148181	1	101	1	1	5	8	7	2	2	15	15	1	102169.2667	8.530475279
102180.7461	15.41248219	1	102	1	1	5	8	8	2	2	15	15	1	102184.8094	4.168195615
102196.3597	15.30281715	1	103	1	1	5	8	9	2	2	14	15	1	102200.4325	7.098042437
102211.8886	14.99721287	1	104	1	1	5	8	10	1	1	15	15	0	102215.879	0.988576302
102227.0842	15.14874159	1	105	1	1	5	8	11	1	1	15	15	0	102231.0835	0.0002815939952
102242.4312	15.30240475	1	106	1	1	5	8	12	2	2	15	15	1	102246.4565	2.198772345
102257.9366	15.79801567	1	107	1	1	5	8	13	1	1	15	15	n/a	102262.0309	n/a
102273.9471	16.04710768	1	108	1	1	5	8	14	2	2	15	15	n/a	102278.0054	n/a
102290.2317	15.86623984	1	109	1	1	5	8	15	1	2	15	15	n/a	102294.3327	n/a
102306.289	15.47824485	1	110	1	1	5	8	16	2	2	15	15	n/a	102310.3612	n/a
102321.9682	14.73641009	1	111	1	1	5	8	17	2	1	15	15	n/a	102325.8679	n/a
102336.8956	14.27744394	1	112	1	1	5	8	18	2	1	15	15	n/a	102340.5939	n/a
102351.3507	14.14765493	1	113	1	1	9	9	1	3	3	15	15	n/a	n/a	n/a
102365.6799	14.17651973	1	114	1	1	9	9	2	3	3	15	15	n/a	n/a	n/a
102380.0357	13.48098646	1	115	1	1	9	9	3	3	3	15	15	n/a	n/a	n/a
102393.6862	13.50453765	1	116	1	1	9	9	4	3	3	15	15	n/a	n/a	n/a
102407.3711	13.43930824	1	117	1	1	9	9	5	3	3	15	15	n/a	n/a	n/a
102420.9824	13.51703061	1	118	1	1	9	9	6	3	3	15	15	n/a	n/a	n/a
102434.6714	13.48802677	1	119	1	1	9	9	7	3	3	15	15	n/a	n/a	n/a
102448.3378	13.46563776	1	120	1	1	9	9	8	3	3	15	15	n/a	n/a	n/a
102461.9761	13.57850824	1	121	1	1	9	9	9	3	3	15	15	n/a	n/a	n/a
102475.731	13.91399381	1	122	1	1	9	9	10	3	3	15	15	n/a	n/a	n/a
