onset	duration	run_number	trial_number	att_task	fix_direction	bar_direction	bar_period	bar_step	fix_noise_ori	stim_noise_ori	fix_stair_val	stim_stair_val	response_val	probe_time	reaction_time
9472.327214	14.23558341	1	1	1	3	9	1	1	3	3	15	15	n/a	n/a	n/a
9486.749315	14.1217079	1	2	1	3	9	1	2	3	3	15	15	n/a	n/a	n/a
9501.048074	14.07216034	1	3	1	3	9	1	3	3	3	15	15	n/a	n/a	n/a
9515.30253	14.11997867	1	4	1	3	9	1	4	3	3	15	15	n/a	n/a	n/a
9529.600243	14.08469737	1	5	1	3	9	1	5	3	3	15	15	n/a	n/a	n/a
9543.868126	14.08720437	1	6	1	3	9	1	6	3	3	15	15	n/a	n/a	n/a
9558.137417	14.03392316	1	7	1	3	9	1	7	3	3	15	15	n/a	n/a	n/a
9572.352839	13.9700233	1	8	1	3	9	1	8	3	3	15	15	n/a	n/a	n/a
9586.502659	14.00016728	1	9	1	3	9	1	9	3	3	15	15	n/a	n/a	n/a
9600.688069	14.08702524	1	10	1	3	9	1	10	3	3	15	15	n/a	n/a	n/a
9614.995603	14.31457825	1	11	1	3	1	2	1	2	2	15	15	n/a	9618.727739	n/a
9629.497825	14.47318605	1	12	1	3	1	2	2	1	1	15	15	n/a	9633.282414	n/a
9644.154303	15.2595077	1	13	1	3	1	2	3	2	2	15	15	n/a	9648.139677	n/a
9659.608786	15.4713424	1	14	1	3	1	2	4	1	1	15	15	n/a	9663.661292	n/a
9675.278333	15.40155582	1	15	1	3	1	2	5	2	1	15	15	n/a	9679.328961	n/a
9690.875113	15.55592634	1	16	1	3	1	2	6	2	1	15	15	n/a	9694.98041	n/a
9706.63234	15.38217792	1	17	1	3	1	2	7	2	1	15	15	n/a	9710.68308	n/a
9722.220484	15.52066091	1	18	1	3	1	2	8	1	1	15	15	n/a	9726.31836	n/a
9737.932366	15.48694294	1	19	1	3	1	2	9	1	2	15	15	n/a	9741.970564	n/a
9753.620509	15.41643836	1	20	1	3	1	2	10	2	2	15	15	n/a	9757.655084	n/a
9769.235425	15.54011611	1	21	1	3	1	2	11	1	2	15	15	n/a	9773.306091	n/a
9784.97418	15.3320764	1	22	1	3	1	2	12	1	1	15	15	n/a	9788.988949	n/a
9800.505727	15.50274668	1	23	1	3	1	2	13	1	2	15	15	n/a	9804.557515	n/a
9816.201434	15.2219271	1	24	1	3	1	2	14	2	2	15	15	n/a	9820.18947	n/a
9831.622728	14.98505505	1	25	1	3	1	2	15	2	1	15	15	n/a	9835.604602	n/a
9846.803796	14.65382793	1	26	1	3	1	2	16	2	1	15	15	n/a	9850.650814	n/a
9861.654953	14.44482071	1	27	1	3	1	2	17	1	2	15	15	n/a	9865.463986	n/a
9876.288876	14.14382273	1	28	1	3	1	2	18	2	1	15	15	n/a	9879.979243	n/a
9890.627385	14.06431036	1	29	1	3	9	3	1	3	3	15	15	n/a	n/a	n/a
9904.878038	13.88024065	1	30	1	3	9	3	2	3	3	15	15	n/a	n/a	n/a
9918.945509	13.9324481	1	31	1	3	9	3	3	3	3	15	15	n/a	n/a	n/a
9933.060919	14.01797149	1	32	1	3	9	3	4	3	3	15	15	n/a	n/a	n/a
9947.259681	13.97217763	1	33	1	3	9	3	5	3	3	15	15	n/a	n/a	n/a
9961.416734	14.01631072	1	34	1	3	9	3	6	3	3	15	15	n/a	n/a	n/a
9975.612242	14.02115002	1	35	1	3	9	3	7	3	3	15	15	n/a	n/a	n/a
9989.816833	14.02071774	1	36	1	3	9	3	8	3	3	15	15	n/a	n/a	n/a
10004.01902	14.04843607	1	37	1	3	9	3	9	3	3	15	15	n/a	n/a	n/a
10018.25303	13.99787568	1	38	1	3	9	3	10	3	3	15	15	n/a	n/a	n/a
10032.45592	14.21549706	1	39	1	3	5	4	1	1	2	15	15	n/a	10036.13967	n/a
10046.85472	14.37250811	1	40	1	3	5	4	2	2	2	15	15	n/a	10050.60682	n/a
10061.40848	14.71116736	1	41	1	3	5	4	3	2	1	15	15	n/a	10065.21505	n/a
10076.31696	15.45751788	1	42	1	3	5	4	4	1	2	15	15	n/a	10080.39247	n/a
10091.96562	15.22845663	1	43	1	3	5	4	5	1	1	15	15	n/a	10095.97377	n/a
10107.39243	15.4818494	1	44	1	3	5	4	6	2	2	15	15	n/a	10111.46004	n/a
10123.07777	15.43567124	1	45	1	3	5	4	7	2	1	15	15	n/a	10127.13007	n/a
10138.71477	15.58386921	1	46	1	3	5	4	8	2	2	15	15	n/a	10142.79923	n/a
10154.49754	15.45200996	1	47	1	3	5	4	9	1	1	15	15	n/a	10158.53381	n/a
10170.14583	15.57690695	1	48	1	3	5	4	10	1	2	15	15	n/a	10174.22734	n/a
10185.91043	15.66847714	1	49	1	3	5	4	11	2	2	15	15	n/a	10189.9715	n/a
10201.79551	15.3938105	1	50	1	3	5	4	12	1	1	15	15	n/a	10205.83686	n/a
10217.3865	15.51607628	1	51	1	3	5	4	13	1	2	15	15	n/a	10221.45536	n/a
10233.10167	15.42786247	1	52	1	3	5	4	14	1	2	15	15	n/a	10237.13009	n/a
10248.73737	15.27966522	1	53	1	3	5	4	15	2	2	15	15	n/a	10252.75068	n/a
10264.21734	14.85093818	1	54	1	3	5	4	16	1	1	15	15	n/a	10268.12073	n/a
10279.26754	14.5285609	1	55	1	3	5	4	17	1	2	15	15	n/a	10283.07486	n/a
10293.9755	14.24931232	1	56	1	3	5	4	18	2	2	15	15	n/a	10297.70911	n/a
10308.42141	14.05282145	1	57	1	3	9	5	1	3	3	15	15	n/a	n/a	n/a
10322.65355	14.08660768	1	58	1	3	9	5	2	3	3	15	15	n/a	n/a	n/a
10336.92105	14.03514598	1	59	1	3	9	5	3	3	3	15	15	n/a	n/a	n/a
10351.1395	14.00093256	1	60	1	3	9	5	4	3	3	15	15	n/a	n/a	n/a
10365.32454	13.9501897	1	61	1	3	9	5	5	3	3	15	15	n/a	n/a	n/a
10379.45853	14.11817018	1	62	1	3	9	5	6	3	3	15	15	n/a	n/a	n/a
10393.75477	14.07019446	1	63	1	3	9	5	7	3	3	15	15	n/a	n/a	n/a
10408.0081	13.98643946	1	64	1	3	9	5	8	3	3	15	15	n/a	n/a	n/a
10422.17789	14.05123796	1	65	1	3	9	5	9	3	3	15	15	n/a	n/a	n/a
10436.41016	13.98655308	1	66	1	3	9	5	10	3	3	15	15	n/a	n/a	n/a
10450.60336	14.75247344	1	67	1	3	1	6	1	1	1	15	15	n/a	10454.28498	n/a
10465.53624	14.33532629	1	68	1	3	1	6	2	1	1	15	15	n/a	10469.27547	n/a
10480.06088	15.00622253	1	69	1	3	1	6	3	2	1	15	15	n/a	10483.91526	n/a
10495.2625	15.44062751	1	70	1	3	1	6	4	2	2	15	15	n/a	10499.36656	n/a
10510.90506	15.63599081	1	71	1	3	1	6	5	2	2	15	15	n/a	10514.98638	n/a
10526.73842	15.50322362	1	72	1	3	1	6	6	1	1	15	15	n/a	10530.80881	n/a
10542.43943	15.50436458	1	73	1	3	1	6	7	1	1	15	15	n/a	10546.50813	n/a
10558.14082	15.50160044	1	74	1	3	1	6	8	1	1	15	15	n/a	10562.24425	n/a
10573.84586	15.44883634	1	75	1	3	1	6	9	1	2	15	15	n/a	10577.87546	n/a
10589.49277	15.38815826	1	76	1	3	1	6	10	1	1	15	15	n/a	10593.57583	n/a
10605.07338	15.47524745	1	77	1	3	1	6	11	1	1	15	15	n/a	10609.1284	n/a
10620.74584	15.43511916	1	78	1	3	1	6	12	1	1	15	15	n/a	10624.79535	n/a
10636.37778	15.4824331	1	79	1	3	1	6	13	2	2	15	15	n/a	10640.38515	n/a
10652.06187	15.38290219	1	80	1	3	1	6	14	2	2	15	15	n/a	10656.06059	n/a
10667.64603	15.15306805	1	81	1	3	1	6	15	1	2	15	15	n/a	10671.62561	n/a
10682.99394	15.02109209	1	82	1	3	1	6	16	1	2	15	15	n/a	10686.91478	n/a
10698.23083	14.53937604	1	83	1	3	1	6	17	2	2	15	15	n/a	10702.15862	n/a
10712.95714	14.27866266	1	84	1	3	1	6	18	2	1	15	15	n/a	10716.71142	n/a
10727.43389	14.09910701	1	85	1	3	9	7	1	3	3	15	15	n/a	n/a	n/a
10741.72297	14.0328602	1	86	1	3	9	7	2	3	3	15	15	n/a	n/a	n/a
10755.93881	14.07935563	1	87	1	3	9	7	3	3	3	15	15	n/a	n/a	n/a
10770.2036	14.05109668	1	88	1	3	9	7	4	3	3	15	15	n/a	n/a	n/a
10784.43667	14.08305338	1	89	1	3	9	7	5	3	3	15	15	n/a	n/a	n/a
10798.70314	14.08508111	1	90	1	3	9	7	6	3	3	15	15	n/a	n/a	n/a
10812.97336	14.06727039	1	91	1	3	9	7	7	3	3	15	15	n/a	n/a	n/a
10827.22442	14.20012148	1	92	1	3	9	7	8	3	3	15	15	n/a	n/a	n/a
10841.61073	14.03208333	1	93	1	3	9	7	9	3	3	15	15	n/a	n/a	n/a
10855.82029	14.04103225	1	94	1	3	9	7	10	3	3	15	15	n/a	n/a	n/a
10870.04472	14.20354481	1	95	1	3	5	8	1	2	2	15	15	n/a	10873.73171	n/a
10884.43184	14.47144443	1	96	1	3	5	8	2	2	1	15	15	n/a	10888.25766	n/a
10899.09083	14.98599463	1	97	1	3	5	8	3	2	1	15	15	n/a	10902.97572	n/a
10914.27683	15.29022663	1	98	1	3	5	8	4	2	1	15	15	n/a	10918.27931	n/a
10929.7574	15.37720661	1	99	1	3	5	8	5	2	2	15	15	n/a	10933.79869	n/a
10945.33255	15.43076954	1	100	1	3	5	8	6	2	2	15	15	n/a	10949.37035	n/a
10960.97112	15.50054683	1	101	1	3	5	8	7	1	2	15	15	n/a	10965.00804	n/a
10976.67351	15.56802255	1	102	1	3	5	8	8	1	1	15	15	n/a	10980.77055	n/a
10992.43673	15.48974818	1	103	1	3	5	8	9	1	1	15	15	n/a	10996.48702	n/a
11008.12263	15.5671734	1	104	1	3	5	8	10	2	1	15	15	n/a	11012.22661	n/a
11023.89074	15.58791491	1	105	1	3	5	8	11	2	2	15	15	n/a	11027.95581	n/a
11039.6732	15.51688091	1	106	1	3	5	8	12	2	2	15	15	n/a	11043.7444	n/a
11055.39385	15.52995337	1	107	1	3	5	8	13	1	2	15	15	n/a	11059.44362	n/a
11071.12805	15.50877255	1	108	1	3	5	8	14	2	2	15	15	n/a	11075.17448	n/a
11086.84941	15.4123102	1	109	1	3	5	8	15	2	1	15	15	n/a	11090.89527	n/a
11102.46171	15.35937008	1	110	1	3	5	8	16	2	1	15	15	n/a	11106.50754	n/a
11118.00912	14.62969448	1	111	1	3	5	8	17	1	1	15	15	n/a	11121.8874	n/a
11132.81956	14.43502843	1	112	1	3	5	8	18	1	1	15	15	n/a	11136.60055	n/a
11147.44834	14.10207852	1	113	1	3	9	9	1	3	3	15	15	n/a	n/a	n/a
11161.73188	14.09961105	1	114	1	3	9	9	2	3	3	15	15	n/a	n/a	n/a
11176.01361	14.14897343	1	115	1	3	9	9	3	3	3	15	15	n/a	n/a	n/a
11190.34944	14.11714007	1	116	1	3	9	9	4	3	3	15	15	n/a	n/a	n/a
11204.6513	14.0980191	1	117	1	3	9	9	5	3	3	15	15	n/a	n/a	n/a
11218.93402	14.08604228	1	118	1	3	9	9	6	3	3	15	15	n/a	n/a	n/a
11233.20149	14.10065666	1	119	1	3	9	9	7	3	3	15	15	n/a	n/a	n/a
11247.49055	14.02910725	1	120	1	3	9	9	8	3	3	15	15	n/a	n/a	n/a
11261.71487	14.10649562	1	121	1	3	9	9	9	3	3	15	15	n/a	n/a	n/a
11276.01378	14.06131904	1	122	1	3	9	9	10	3	3	15	15	n/a	n/a	n/a
