onset	duration	run_number	trial_number	att_task	fix_direction	bar_direction	bar_period	bar_step	fix_noise_ori	stim_noise_ori	fix_stair_val	stim_stair_val	response_val	probe_time	reaction_time
6017.220379	15.00791882	1	1	1	2	9	1	1	3	3	15	15	n/a	n/a	n/a
6032.411855	14.25768314	1	2	1	2	9	1	2	3	3	15	15	n/a	n/a	n/a
6046.84923	14.43523218	1	3	1	2	9	1	3	3	3	15	15	n/a	n/a	n/a
6061.467861	14.82938902	1	4	1	2	9	1	4	3	3	15	15	n/a	n/a	n/a
6076.494056	14.95181336	1	5	1	2	9	1	5	3	3	15	15	n/a	n/a	n/a
6091.639963	14.54592639	1	6	1	2	9	1	6	3	3	15	15	n/a	n/a	n/a
6106.368273	14.35498552	1	7	1	2	9	1	7	3	3	15	15	n/a	n/a	n/a
6120.902926	14.42497405	1	8	1	2	9	1	8	3	3	15	15	n/a	n/a	n/a
6135.509	14.40095476	1	9	1	2	9	1	9	3	3	15	15	n/a	n/a	n/a
6150.090505	14.35347084	1	10	1	2	9	1	10	3	3	15	15	n/a	n/a	n/a
6164.695691	14.51093269	1	11	1	2	1	2	1	2	2	15	15	n/a	6168.580107	n/a
6179.389295	14.86189498	1	12	1	2	1	2	2	1	1	15	15	n/a	6183.332983	n/a
6194.444093	15.21152692	1	13	1	2	1	2	3	2	2	15	15	n/a	6198.389167	n/a
6209.850971	15.40496392	1	14	1	2	1	2	4	2	2	15	15	n/a	6213.87072	n/a
6225.455182	15.54775983	1	15	1	2	1	2	5	1	2	15	15	n/a	6229.473442	n/a
6241.211145	15.49934347	1	16	1	2	1	2	6	2	2	15	15	n/a	6245.309153	n/a
6256.910438	15.3863773	1	17	1	2	1	2	7	2	1	15	15	n/a	6260.979133	n/a
6272.494734	15.28280945	1	18	1	2	1	2	8	2	1	15	15	n/a	6276.524897	n/a
6287.980729	15.39888578	1	19	1	2	1	2	9	1	2	15	15	n/a	6292.030985	n/a
6303.579666	15.38784226	1	20	1	2	1	2	10	2	2	15	15	n/a	6307.649217	n/a
6319.165713	15.55107616	1	21	1	2	1	2	11	1	2	15	15	n/a	6323.248034	n/a
6334.915574	15.52001144	1	22	1	2	1	2	12	1	2	15	15	n/a	6338.983271	n/a
6350.638945	15.36494445	1	23	1	2	1	2	13	1	1	15	15	n/a	6354.766511	n/a
6366.201304	15.32982039	1	24	1	2	1	2	14	2	1	15	15	n/a	6370.269238	n/a
6381.733091	15.04950991	1	25	1	2	1	2	15	1	1	15	15	n/a	6385.695801	n/a
6396.984285	14.53681938	1	26	1	2	1	2	16	1	2	15	15	n/a	6400.810937	n/a
6411.716598	14.29673479	1	27	1	2	1	2	17	2	2	15	15	n/a	6415.478514	n/a
6426.195985	14.14095771	1	28	1	2	1	2	18	1	2	15	15	n/a	6429.872349	n/a
6440.53836	14.18737986	1	29	1	2	9	3	1	3	3	15	15	n/a	n/a	n/a
6454.904375	13.98195094	1	30	1	2	9	3	2	3	3	15	15	n/a	n/a	n/a
6469.070224	14.0346898	1	31	1	2	9	3	3	3	3	15	15	n/a	n/a	n/a
6483.290448	14.1013274	1	32	1	2	9	3	4	3	3	15	15	n/a	n/a	n/a
6497.573575	13.89419939	1	33	1	2	9	3	5	3	3	15	15	n/a	n/a	n/a
6511.644785	13.94633469	1	34	1	2	9	3	6	3	3	15	15	n/a	n/a	n/a
6525.775	13.86446804	1	35	1	2	9	3	7	3	3	15	15	n/a	n/a	n/a
6539.81058	14.08611724	1	36	1	2	9	3	8	3	3	15	15	n/a	n/a	n/a
6554.078487	14.05254773	1	37	1	2	9	3	9	3	3	15	15	n/a	n/a	n/a
6568.312572	14.18396346	1	38	1	2	9	3	10	3	3	15	15	n/a	n/a	n/a
6582.698327	14.10109256	1	39	1	2	5	4	1	2	2	15	15	n/a	6586.350151	n/a
6596.982121	14.23979792	1	40	1	2	5	4	2	1	1	15	15	n/a	6600.687407	n/a
6611.401846	14.52549837	1	41	1	2	5	4	3	1	2	15	15	n/a	6615.213242	n/a
6626.110597	14.94885015	1	42	1	2	5	4	4	2	2	15	15	n/a	6630.048088	n/a
6641.252257	15.17021318	1	43	1	2	5	4	5	1	2	15	15	n/a	6645.269923	n/a
6656.617687	15.07155272	1	44	1	2	5	4	6	1	1	15	15	n/a	6660.653486	n/a
6671.887884	15.16284402	1	45	1	2	5	4	7	2	1	15	15	n/a	6675.888944	n/a
6687.256748	15.53359343	1	46	1	2	5	4	8	1	2	15	15	n/a	6691.335515	n/a
6702.989571	15.1894787	1	47	1	2	5	4	9	1	1	15	15	n/a	6707.057368	n/a
6718.374024	15.41950699	1	48	1	2	5	4	10	2	1	15	15	n/a	6722.476469	n/a
6733.989364	15.43551644	1	49	1	2	5	4	11	1	2	15	15	n/a	6738.043038	n/a
6749.62877	15.45242015	1	50	1	2	5	4	12	1	1	15	15	n/a	6753.710708	n/a
6765.278006	15.44783428	1	51	1	2	5	4	13	1	2	15	15	n/a	6769.338656	n/a
6780.933658	15.37953333	1	52	1	2	5	4	14	2	2	15	15	n/a	6784.982228	n/a
6796.512924	15.01644107	1	53	1	2	5	4	15	1	2	15	15	n/a	6800.442025	n/a
6811.747302	14.67594202	1	54	1	2	5	4	16	1	2	15	15	n/a	6815.625749	n/a
6826.612216	14.30894603	1	55	1	2	5	4	17	1	1	15	15	n/a	6830.388811	n/a
6841.101962	14.23422074	1	56	1	2	5	4	18	1	1	15	15	n/a	6844.850324	n/a
6855.525456	14.03853227	1	57	1	2	9	5	1	3	3	15	15	n/a	n/a	n/a
6869.747791	14.00194656	1	58	1	2	9	5	2	3	3	15	15	n/a	n/a	n/a
6883.933165	13.99945211	1	59	1	2	9	5	3	3	3	15	15	n/a	n/a	n/a
6898.117158	14.02020641	1	60	1	2	9	5	4	3	3	15	15	n/a	n/a	n/a
6912.317609	14.03561564	1	61	1	2	9	5	5	3	3	15	15	n/a	n/a	n/a
6926.534807	13.93487057	1	62	1	2	9	5	6	3	3	15	15	n/a	n/a	n/a
6940.6532	13.95087078	1	63	1	2	9	5	7	3	3	15	15	n/a	n/a	n/a
6954.786958	13.95212659	1	64	1	2	9	5	8	3	3	15	15	n/a	n/a	n/a
6968.917273	13.98706954	1	65	1	2	9	5	9	3	3	15	15	n/a	n/a	n/a
6983.087136	13.96785927	1	66	1	2	9	5	10	3	3	15	15	n/a	n/a	n/a
6997.243724	14.12388465	1	67	1	2	1	6	1	1	1	15	15	n/a	7000.91334	n/a
7011.543612	14.3968227	1	68	1	2	1	6	2	1	2	15	15	n/a	7015.25388	n/a
7026.134718	14.89377723	1	69	1	2	1	6	3	1	2	15	15	n/a	7030.063937	n/a
7041.227401	15.10845298	1	70	1	2	1	6	4	1	1	15	15	n/a	7045.17681	n/a
7056.531295	15.30166773	1	71	1	2	1	6	5	2	2	15	15	n/a	7060.58053	n/a
7072.032983	15.46649966	1	72	1	2	1	6	6	2	2	15	15	n/a	7076.099338	n/a
7087.700104	15.21970916	1	73	1	2	1	6	7	1	1	15	15	n/a	7091.750678	n/a
7103.114485	15.45704668	1	74	1	2	1	6	8	2	2	15	15	n/a	7107.153423	n/a
7118.768778	15.43490914	1	75	1	2	1	6	9	1	2	15	15	n/a	7122.801568	n/a
7134.404073	15.46931911	1	76	1	2	1	6	10	1	2	15	15	n/a	7138.471245	n/a
7150.070077	15.18774007	1	77	1	2	1	6	11	1	1	15	15	n/a	7154.12298	n/a
7165.454846	15.31964234	1	78	1	2	1	6	12	1	2	15	15	n/a	7169.487138	n/a
7180.976606	15.19865583	1	79	1	2	1	6	13	1	1	15	15	n/a	7185.025552	n/a
7196.389692	15.10001116	1	80	1	2	1	6	14	1	1	15	15	n/a	7200.455855	n/a
7211.689284	15.01927948	1	81	1	2	1	6	15	2	2	15	15	n/a	7215.625514	n/a
7226.906538	14.66501393	1	82	1	2	1	6	16	1	1	15	15	n/a	7230.774969	n/a
7241.775141	14.3071759	1	83	1	2	1	6	17	2	2	15	15	n/a	7245.551883	n/a
7256.266826	14.1799527	1	84	1	2	1	6	18	1	2	15	15	n/a	7259.949259	n/a
7270.6239	13.98768893	1	85	1	2	9	7	1	3	3	15	15	n/a	n/a	n/a
7284.793938	14.05339672	1	86	1	2	9	7	2	3	3	15	15	n/a	n/a	n/a
7299.026921	13.98696454	1	87	1	2	9	7	3	3	3	15	15	n/a	n/a	n/a
7313.195887	13.9132112	1	88	1	2	9	7	4	3	3	15	15	n/a	n/a	n/a
7327.278743	14.0053559	1	89	1	2	9	7	5	3	3	15	15	n/a	n/a	n/a
7341.466756	13.99848052	1	90	1	2	9	7	6	3	3	15	15	n/a	n/a	n/a
7355.649566	14.04993391	1	91	1	2	9	7	7	3	3	15	15	n/a	n/a	n/a
7369.88261	14.08489594	1	92	1	2	9	7	8	3	3	15	15	n/a	n/a	n/a
7384.151636	14.0856989	1	93	1	2	9	7	9	3	3	15	15	n/a	n/a	n/a
7398.416731	13.9665634	1	94	1	2	9	7	10	3	3	15	15	n/a	n/a	n/a
7412.574834	14.1341723	1	95	1	2	5	8	1	1	2	15	15	n/a	7416.257467	n/a
7426.890181	14.25173497	1	96	1	2	5	8	2	1	1	15	15	n/a	7430.611694	n/a
7441.329586	14.71890522	1	97	1	2	5	8	3	2	1	15	15	n/a	7445.250704	n/a
7456.241942	15.07077429	1	98	1	2	5	8	4	1	2	15	15	n/a	7460.172901	n/a
7471.501301	15.18922901	1	99	1	2	5	8	5	2	2	15	15	n/a	7475.472129	n/a
7486.89412	15.35251677	1	100	1	2	5	8	6	2	2	15	15	n/a	7490.8951	n/a
7502.444945	15.15259129	1	101	1	2	5	8	7	2	1	15	15	n/a	7506.427942	n/a
7517.796657	15.36744928	1	102	1	2	5	8	8	1	2	15	15	n/a	7521.781891	n/a
7533.365505	15.16718049	1	103	1	2	5	8	9	1	1	15	15	n/a	7537.364589	n/a
7548.732394	15.40267617	1	104	1	2	5	8	10	1	2	15	15	n/a	7552.735255	n/a
7564.333496	15.31957205	1	105	1	2	5	8	11	2	2	15	15	n/a	7568.334673	n/a
7579.852452	15.35126211	1	106	1	2	5	8	12	2	1	15	15	n/a	7583.853043	n/a
7595.401612	15.35468656	1	107	1	2	5	8	13	2	2	15	15	n/a	7599.402875	n/a
7610.953994	15.30027783	1	108	1	2	5	8	14	2	2	15	15	n/a	7614.937608	n/a
7626.454736	14.99863846	1	109	1	2	5	8	15	1	1	15	15	n/a	7630.419358	n/a
7641.649195	15.02038426	1	110	1	2	5	8	16	1	2	15	15	n/a	7645.598189	n/a
7656.867971	14.35429939	1	111	1	2	5	8	17	2	2	15	15	n/a	7660.632593	n/a
7671.415849	14.17655272	1	112	1	2	5	8	18	1	1	15	15	n/a	7675.109705	n/a
7685.767468	14.07153533	1	113	1	2	9	9	1	3	3	15	15	n/a	n/a	n/a
7700.023506	14.11856089	1	114	1	2	9	9	2	3	3	15	15	n/a	n/a	n/a
7714.326356	13.94908351	1	115	1	2	9	9	3	3	3	15	15	n/a	n/a	n/a
7728.457923	13.96817181	1	116	1	2	9	9	4	3	3	15	15	n/a	n/a	n/a
7742.607015	14.0696856	1	117	1	2	9	9	5	3	3	15	15	n/a	n/a	n/a
7756.861696	13.81414915	1	118	1	2	9	9	6	3	3	15	15	n/a	n/a	n/a
7770.862414	13.94637094	1	119	1	2	9	9	7	3	3	15	15	n/a	n/a	n/a
7784.975891	13.78249986	1	120	1	2	9	9	8	3	3	15	15	n/a	n/a	n/a
7798.926344	13.98895427	1	121	1	2	9	9	9	3	3	15	15	n/a	n/a	n/a
7813.095039	14.00449837	1	122	1	2	9	9	10	3	3	15	15	n/a	n/a	n/a
