onset	duration	run_number	trial_number	att_task	fix_direction	bar_direction	bar_period	bar_step	fix_noise_ori	stim_noise_ori	fix_stair_val	stim_stair_val	response_val	probe_time	reaction_time
52731.00128	1.283711972	2	1	2	4	9	1	1	3	3	9	9	n/a	n/a	n/a
52732.30151	1.282318098	2	2	2	4	9	1	2	3	3	9	9	n/a	n/a	n/a
52733.60046	1.283213841	2	3	2	4	9	1	3	3	3	9	9	n/a	n/a	n/a
52734.90026	1.283431149	2	4	2	4	9	1	4	3	3	9	9	n/a	n/a	n/a
52736.20053	1.283147401	2	5	2	4	9	1	5	3	3	9	9	n/a	n/a	n/a
52737.50048	1.283195461	2	6	2	4	9	1	6	3	3	9	9	n/a	n/a	n/a
52738.80076	1.282569486	2	7	2	4	9	1	7	3	3	9	9	n/a	n/a	n/a
52740.1005	1.283418475	2	8	2	4	9	1	8	3	3	9	9	n/a	n/a	n/a
52741.40022	1.290071806	2	9	2	4	9	1	9	3	3	9	9	n/a	n/a	n/a
52742.70058	1.283279077	2	10	2	4	9	1	10	3	3	9	9	n/a	n/a	n/a
52744.04618	1.270871935	2	11	2	4	1	2	1	1	2	9	9	n/a	52744.3684	n/a
52745.33385	1.299583596	2	12	2	4	1	2	2	2	1	9	9	1	52745.66709	0.756598259
52746.65044	1.284126391	2	13	2	4	1	2	3	1	2	9	10	0	52746.98378	0.884863418
52747.95069	1.283175436	2	14	2	4	1	2	4	1	2	9	10	n/a	52748.28359	n/a
52749.25061	1.283136263	2	15	2	4	1	2	5	1	1	9	10	1	52749.58376	0.90015174
52750.55044	1.283294187	2	16	2	4	1	2	6	1	2	9	10	n/a	52750.88375	n/a
52751.84988	1.283362437	2	17	2	4	1	2	7	1	2	9	11	0	52752.18381	0.749680231
52753.1505	1.282781531	2	18	2	4	1	2	8	1	1	9	12	0	52753.48376	0.651826483
52754.45035	1.283481023	2	19	2	4	1	2	9	1	1	9	12	1	52754.78336	0.750281137
52755.74993	1.283394738	2	20	2	4	1	2	10	1	2	9	12	1	52756.08375	0.783928189
52757.05044	1.283291256	2	21	2	4	1	2	11	1	1	9	12	n/a	52757.3837	n/a
52758.34968	1.283508361	2	22	2	4	1	2	12	2	2	9	12	1	52758.68367	0.949840536
52759.65032	1.283413214	2	23	2	4	1	2	13	2	2	9	11	n/a	52759.98386	n/a
52760.94993	1.283799674	2	24	2	4	1	2	14	2	2	9	11	n/a	52761.28378	n/a
52762.24968	1.284141964	2	25	2	4	1	2	15	2	2	9	11	1	52762.58371	0.466620377
52763.54985	1.283999258	2	26	2	4	1	2	16	2	2	9	11	1	52763.8837	0.600723791
52764.84996	1.283376388	2	27	2	4	1	2	17	1	2	9	12	0	52765.19514	0.805847356
52766.15044	1.29461791	2	28	2	4	1	2	18	1	2	9	13	0	52766.48362	0.828375924
52767.46172	1.288202085	2	29	2	4	1	2	19	1	2	9	13	1	52767.79518	0.538638885
52768.76705	1.294835996	2	30	2	4	1	2	20	2	1	9	14	0	52769.09992	0.750713903
52770.07891	1.283753824	2	31	2	4	1	2	21	2	1	9	14	1	52770.41239	0.616671784
52771.37943	1.332964528	2	32	2	4	1	2	22	1	1	9	14	1	52771.71241	0.572304442
52772.72943	1.282983124	2	33	2	4	1	2	23	2	2	9	13	1	52773.06248	0.517168577
52774.02945	1.283111146	2	34	2	4	1	2	24	1	2	9	14	0	52774.36237	0.833686384
52775.3295	1.287133672	2	35	2	4	1	2	25	1	1	9	15	0	52775.66244	0.504321109
52776.63323	1.283578268	2	36	2	4	1	2	26	2	1	9	15	1	52776.96702	0.583777926
52777.93305	1.283978968	2	37	2	4	1	2	27	2	2	9	15	1	52778.26697	0.716891056
52779.23346	1.282937825	2	38	2	4	1	2	28	1	1	9	14	1	52779.56638	0.65048181
52780.53363	1.28346987	2	39	2	4	1	2	29	2	1	9	14	1	52780.86682	0.866670638
52781.83347	1.30006704	2	40	2	4	1	2	30	2	1	9	14	1	52782.1663	0.817315441
52783.15045	1.283178987	2	41	2	4	1	2	31	1	1	9	13	1	52783.48361	0.599947538
52784.44982	1.283418908	2	42	2	4	1	2	32	1	1	9	13	1	52784.78417	0.59936078
52785.7647	1.28539096	2	43	2	4	9	3	1	3	3	9	13	n/a	n/a	n/a
52787.0667	1.283445917	2	44	2	4	9	3	2	3	3	9	13	n/a	n/a	n/a
52788.36719	1.282686386	2	45	2	4	9	3	3	3	3	9	13	n/a	n/a	n/a
52789.66713	1.282740952	2	46	2	4	9	3	4	3	3	9	13	n/a	n/a	n/a
52790.96703	1.283369764	2	47	2	4	9	3	5	3	3	9	13	n/a	n/a	n/a
52792.26649	1.283843015	2	48	2	4	9	3	6	3	3	9	13	n/a	n/a	n/a
52793.56646	1.28340718	2	49	2	4	9	3	7	3	3	9	13	n/a	n/a	n/a
52794.86706	1.283498511	2	50	2	4	9	3	8	3	3	9	13	n/a	n/a	n/a
52796.16653	1.283985271	2	51	2	4	9	3	9	3	3	9	13	n/a	n/a	n/a
52797.46676	1.283713959	2	52	2	4	9	3	10	3	3	9	13	n/a	n/a	n/a
52798.78112	1.419237414	2	53	2	4	3	4	1	1	2	9	13	1	52799.16695	0.717127973
52800.21685	1.440421465	2	54	2	4	3	4	2	1	1	9	12	1	52800.61699	0.717072883
52801.66645	1.467671894	2	55	2	4	3	4	3	2	2	9	12	1	52802.08257	0.684762431
52803.15043	1.433026524	2	56	2	4	3	4	4	2	1	9	12	1	52803.55012	0.550656499
52804.60097	1.466134431	2	57	2	4	3	4	5	2	1	9	11	1	52804.98363	0.633503454
52806.08365	1.45011512	2	58	2	4	3	4	6	2	1	9	11	n/a	52806.48344	n/a
52807.54984	1.416967475	2	59	2	4	3	4	7	2	2	9	11	1	52807.93401	0.665957612
52808.98397	1.450103818	2	60	2	4	3	4	8	2	2	9	12	0	52809.3837	0.666911543
52810.45011	1.516716924	2	61	2	4	3	4	9	2	1	9	13	0	52810.83415	0.849868479
52811.984	1.599512976	2	62	2	4	3	4	10	2	1	9	13	1	52812.39875	0.600383799
52813.60072	1.64915322	2	63	2	4	3	4	11	1	2	9	14	0	52814.05029	0.615492046
52815.26688	1.599696617	2	64	2	4	3	4	12	1	1	9	14	1	52815.7157	0.616241648
52816.88239	1.633374702	2	65	2	4	3	4	13	1	2	9	14	1	52817.31677	0.750360694
52818.54892	1.483800132	2	66	2	4	3	4	14	2	2	9	13	1	52818.95028	0.683295577
52820.04926	1.500029048	2	67	2	4	3	4	15	1	1	9	13	n/a	52820.46602	n/a
52821.56567	1.616991422	2	68	2	4	3	4	16	1	2	9	14	0	52821.98224	0.518167141
52823.19925	1.48334919	2	69	2	4	3	4	17	2	1	9	15	0	52823.61599	0.566850576
52824.69917	1.466878415	2	70	2	4	3	4	18	1	2	9	15	1	52825.09932	0.666869595
52826.18329	1.349411673	2	71	2	4	9	5	1	3	3	9	15	n/a	n/a	n/a
52827.54929	1.316792821	2	72	2	4	9	5	2	3	3	9	15	n/a	n/a	n/a
52828.88272	1.283311811	2	73	2	4	9	5	3	3	3	9	15	n/a	n/a	n/a
52830.18275	1.283812353	2	74	2	4	9	5	4	3	3	9	15	n/a	n/a	n/a
52831.48274	1.283512441	2	75	2	4	9	5	5	3	3	9	15	n/a	n/a	n/a
52832.78279	1.284312142	2	76	2	4	9	5	6	3	3	9	15	n/a	n/a	n/a
52834.08342	1.283729223	2	77	2	4	9	5	7	3	3	9	15	n/a	n/a	n/a
52835.38298	1.284230579	2	78	2	4	9	5	8	3	3	9	15	n/a	n/a	n/a
52836.68376	1.283424846	2	79	2	4	9	5	9	3	3	9	15	n/a	n/a	n/a
52837.98378	1.283355668	2	80	2	4	9	5	10	3	3	9	15	n/a	n/a	n/a
52839.30068	1.283383002	2	81	2	4	5	6	1	1	1	9	15	0	52839.63404	0.800255534
52840.60069	1.299430769	2	82	2	4	5	6	2	2	1	9	15	1	52840.93402	0.616185364
52841.91705	1.316851631	2	83	2	4	5	6	3	2	1	9	15	1	52842.26717	0.666823879
52843.25019	1.283672496	2	84	2	4	5	6	4	2	2	9	15	0	52843.5838	0.700331378
52844.55045	1.283452553	2	85	2	4	5	6	5	2	1	9	15	0	52844.88399	0.48317543
52845.85059	1.283535764	2	86	2	4	5	6	6	1	1	9	15	1	52846.18404	0.550072165
52847.15078	1.283283683	2	87	2	4	5	6	7	2	2	9	15	1	52847.48498	0.71576479
52848.4508	1.333572291	2	88	2	4	5	6	8	2	2	9	14	1	52848.81741	0.549708471
52849.80041	1.300394742	2	89	2	4	5	6	9	1	2	9	14	1	52850.15054	0.800259321
52851.11745	1.283518432	2	90	2	4	5	6	10	1	2	9	14	1	52851.45077	0.650415895
52852.41754	1.283220062	2	91	2	4	5	6	11	2	1	9	13	1	52852.75069	0.683378111
52853.71758	1.299842551	2	92	2	4	5	6	12	1	1	9	13	1	52854.06743	0.6662352
52855.03433	1.299878115	2	93	2	4	5	6	13	2	2	9	14	0	52855.36777	0.765788662
52856.35106	1.333643713	2	94	2	4	5	6	14	1	1	9	14	1	52856.68438	0.716745826
52857.70137	1.433277712	2	95	2	4	5	6	15	1	1	9	14	1	52858.10133	0.783767007
52859.15138	1.433591181	2	96	2	4	5	6	16	2	2	9	13	1	52859.55149	0.650634843
52860.60168	1.436698613	2	97	2	4	5	6	17	1	2	9	14	0	52861.00139	0.716262143
52862.05121	1.450110442	2	98	2	4	5	6	18	2	1	9	15	0	52862.45163	0.667412835
52863.51809	1.35000716	2	99	2	4	5	6	19	1	1	9	15	1	52863.90229	0.664579826
52864.88495	1.449825926	2	100	2	4	5	6	20	1	1	9	15	1	52865.28467	0.667546917
52866.35156	1.449836226	2	101	2	4	5	6	21	2	2	9	15	0	52866.75143	0.568610361
52867.81821	1.449853026	2	102	2	4	5	6	22	1	1	9	15	1	52868.20157	0.799133377
52869.28488	1.44985449	2	103	2	4	5	6	23	1	1	9	15	1	52869.68477	0.683557194
52870.75159	1.46646635	2	104	2	4	5	6	24	2	2	9	14	1	52871.15147	0.61654709
52872.23495	1.449790809	2	105	2	4	5	6	25	2	2	9	14	1	52872.61846	0.799683489
52873.70148	1.433191323	2	106	2	4	5	6	26	1	2	9	14	1	52874.10135	0.700429893
52875.15142	1.416557841	2	107	2	4	5	6	27	2	1	9	13	1	52875.55144	0.883519197
52876.58442	1.416870745	2	108	2	4	5	6	28	1	2	9	13	1	52876.96804	0.749381869
52878.01812	1.416508652	2	109	2	4	5	6	29	1	1	9	13	1	52878.41811	0.698825797
52879.45118	1.332907079	2	110	2	4	5	6	30	1	1	9	12	1	52879.83393	0.649571777
52880.80061	1.28285045	2	111	2	4	5	6	31	1	2	9	12	n/a	52881.13358	n/a
52882.09961	1.283791193	2	112	2	4	5	6	32	2	1	9	12	n/a	52882.43386	n/a
52883.40365	1.279209179	2	113	2	4	9	7	1	3	3	9	12	n/a	n/a	n/a
52884.70037	1.282898469	2	114	2	4	9	7	2	3	3	9	12	n/a	n/a	n/a
52885.99954	1.283604472	2	115	2	4	9	7	3	3	3	9	12	n/a	n/a	n/a
52887.30052	1.282690925	2	116	2	4	9	7	4	3	3	9	12	n/a	n/a	n/a
52888.59956	1.284332739	2	117	2	4	9	7	5	3	3	9	12	n/a	n/a	n/a
52889.89975	1.284759391	2	118	2	4	9	7	6	3	3	9	12	n/a	n/a	n/a
52891.2012	1.296530001	2	119	2	4	9	7	7	3	3	9	12	n/a	n/a	n/a
52892.50496	1.279567269	2	120	2	4	9	7	8	3	3	9	12	n/a	n/a	n/a
52893.80119	1.283306719	2	121	2	4	9	7	9	3	3	9	12	n/a	n/a	n/a
52895.10133	1.282595588	2	122	2	4	9	7	10	3	3	9	12	n/a	n/a	n/a
52896.43465	1.416392552	2	123	2	4	7	8	1	2	1	9	12	1	52896.81819	0.732269578
52897.86778	1.433302433	2	124	2	4	7	8	2	1	1	9	13	0	52898.2677	0.753393683
52899.31788	1.449845834	2	125	2	4	7	8	3	2	2	9	13	1	52899.71774	0.599414501
52900.78443	1.416543437	2	126	2	4	7	8	4	2	2	9	13	1	52901.18461	0.853423224
52902.21776	1.466620235	2	127	2	4	7	8	5	1	1	9	12	1	52902.60119	0.650085591
52903.70115	1.449489588	2	128	2	4	7	8	6	2	1	9	12	1	52904.10123	0.666556687
52905.16778	1.416877717	2	129	2	4	7	8	7	1	2	9	13	0	52905.55105	0.567100971
52906.60112	1.433315474	2	130	2	4	7	8	8	1	2	9	14	0	52907.0031	0.69782063
52908.05104	1.416650879	2	131	2	4	7	8	9	2	2	9	14	1	52908.43444	0.566548206
52909.48452	1.416543966	2	132	2	4	7	8	10	2	2	9	14	1	52909.86776	0.69922377
52910.91772	1.450021655	2	133	2	4	7	8	11	1	2	9	13	1	52911.3179	0.949038574
52912.38457	1.399864245	2	134	2	4	7	8	12	2	2	9	13	1	52912.76773	0.816635194
52913.80117	1.449957405	2	135	2	4	7	8	13	1	1	9	13	1	52914.20102	0.633140765
52915.26785	1.416552327	2	136	2	4	7	8	14	1	1	9	12	1	52915.65111	0.699267798
52916.70117	1.433300964	2	137	2	4	7	8	15	1	2	9	12	1	52917.10124	0.816609611
52918.15102	1.466761466	2	138	2	4	7	8	16	2	1	9	12	1	52918.55125	0.9996922
52919.63443	1.433360575	2	139	2	4	7	8	17	2	2	9	11	1	52920.03444	0.800195072
52921.08438	1.450061011	2	140	2	4	7	8	18	2	1	9	11	1	52921.48454	0.989779746
52922.55617	1.278220305	2	141	2	4	9	9	1	3	3	9	11	n/a	n/a	n/a
52923.85099	1.283380592	2	142	2	4	9	9	2	3	3	9	11	n/a	n/a	n/a
52925.15121	1.283206511	2	143	2	4	9	9	3	3	3	9	11	n/a	n/a	n/a
52926.45122	1.283163023	2	144	2	4	9	9	4	3	3	9	11	n/a	n/a	n/a
52927.75089	1.283552852	2	145	2	4	9	9	5	3	3	9	11	n/a	n/a	n/a
52929.05122	1.28329953	2	146	2	4	9	9	6	3	3	9	11	n/a	n/a	n/a
52930.35112	1.283294218	2	147	2	4	9	9	7	3	3	9	11	n/a	n/a	n/a
52931.65099	1.283442762	2	148	2	4	9	9	8	3	3	9	11	n/a	n/a	n/a
52932.95105	1.283334005	2	149	2	4	9	9	9	3	3	9	11	n/a	n/a	n/a
52934.25115	1.283246048	2	150	2	4	9	9	10	3	3	9	11	n/a	n/a	n/a
