onset	duration	run_number	trial_number	att_task	fix_direction	bar_direction	bar_period	bar_step	fix_noise_ori	stim_noise_ori	fix_stair_val	stim_stair_val	response_val	probe_time	reaction_time
1560171409	1.291479111	6	1	2	1	9	1	1	3	3	4	6	n/a	n/a	n/a
1560171410	1.291788816	6	2	2	1	9	1	2	3	3	4	6	n/a	n/a	n/a
1560171412	1.291795015	6	3	2	1	9	1	3	3	3	4	6	n/a	n/a	n/a
1560171413	1.291668177	6	4	2	1	9	1	4	3	3	4	6	n/a	n/a	n/a
1560171414	1.291692972	6	5	2	1	9	1	5	3	3	4	6	n/a	n/a	n/a
1560171416	1.291722059	6	6	2	1	9	1	6	3	3	4	6	n/a	n/a	n/a
1560171417	1.291749954	6	7	2	1	9	1	7	3	3	4	6	n/a	n/a	n/a
1560171418	1.291664839	6	8	2	1	9	1	8	3	3	4	6	n/a	n/a	n/a
1560171419	1.291668892	6	9	2	1	9	1	9	3	3	4	6	n/a	n/a	n/a
1560171421	1.291613102	6	10	2	1	9	1	10	3	3	4	6	n/a	n/a	n/a
1560171422	1.290624857	6	11	2	1	1	2	1	2	2	4	7	0	1560171422	0.2253279686
1560171423	1.291749001	6	12	2	1	1	2	2	2	1	4	8	0	1560171424	0.7001700401
1560171425	1.299995899	6	13	2	1	1	2	3	1	2	4	9	0	1560171425	0.5001840591
1560171426	1.300009012	6	14	2	1	1	2	4	1	1	4	9	1	1560171426	0.5086400509
1560171427	1.299993992	6	15	2	1	1	2	5	2	1	4	10	0	1560171428	0.4245920181
1560171429	1.299953938	6	16	2	1	1	2	6	1	1	4	10	1	1560171429	0.4251890182
1560171430	1.299996853	6	17	2	1	1	2	7	2	1	4	11	0	1560171430	0.5252740383
1560171431	1.299997091	6	18	2	1	1	2	8	1	1	4	11	1	1560171432	0.6844329834
1560171433	1.291671991	6	19	2	1	1	2	9	1	1	4	11	1	1560171433	0.5002331734
1560171434	1.300005198	6	20	2	1	1	2	10	1	2	4	10	1	1560171434	0.6338140965
1560171435	1.299959183	6	21	2	1	1	2	11	1	1	4	10	1	1560171435	0.6502389908
1560171436	1.291646004	6	22	2	1	1	2	12	1	2	4	10	1	1560171437	0.5011630058
1560171438	1.291657925	6	23	2	1	1	2	13	1	1	4	9	1	1560171438	0.4921610355
1560171439	1.291649103	6	24	2	1	1	2	14	2	2	4	9	1	1560171439	0.6169090271
1560171440	1.291597128	6	25	2	1	1	2	15	2	1	4	9	1	1560171441	0.5750260353
1560171442	1.291780949	6	26	2	1	1	2	16	1	2	4	8	1	1560171442	0.7750709057
1560171443	1.300104856	6	27	2	1	1	2	17	2	1	4	8	1	1560171443	0.6584708691
1560171444	1.291670799	6	28	2	1	1	2	18	1	1	4	8	1	1560171445	0.8417780399
1560171446	1.291605949	6	29	2	1	9	3	1	3	3	4	8	n/a	n/a	n/a
1560171447	1.291605949	6	30	2	1	9	3	2	3	3	4	8	n/a	n/a	n/a
1560171448	1.291755915	6	31	2	1	9	3	3	3	3	4	8	n/a	n/a	n/a
1560171449	1.291661978	6	32	2	1	9	3	4	3	3	4	8	n/a	n/a	n/a
1560171451	1.291657925	6	33	2	1	9	3	5	3	3	4	8	n/a	n/a	n/a
1560171452	1.291661024	6	34	2	1	9	3	6	3	3	4	8	n/a	n/a	n/a
1560171453	1.291664124	6	35	2	1	9	3	7	3	3	4	8	n/a	n/a	n/a
1560171455	1.291756153	6	36	2	1	9	3	8	3	3	4	8	n/a	n/a	n/a
1560171456	1.291671991	6	37	2	1	9	3	9	3	3	4	8	n/a	n/a	n/a
1560171457	1.291662931	6	38	2	1	9	3	10	3	3	4	8	n/a	n/a	n/a
1560171459	1.291763067	6	39	2	1	5	4	1	1	1	4	7	1	1560171459	0.8585889339
1560171460	1.291697979	6	40	2	1	5	4	2	2	1	4	7	1	1560171460	0.8584530354
1560171461	1.291679144	6	41	2	1	5	4	3	1	2	4	7	1	1560171461	0.6169960499
1560171462	1.291706085	6	42	2	1	5	4	4	1	1	4	6	1	1560171463	0.6166579723
1560171464	1.291615963	6	43	2	1	5	4	5	1	1	4	7	0	1560171464	0.5252969265
1560171465	1.291661978	6	44	2	1	5	4	6	2	1	4	7	1	1560171465	0.5501060486
1560171466	1.291680098	6	45	2	1	5	4	7	1	2	4	8	0	1560171467	0.6586380005
1560171468	1.29993701	6	46	2	1	5	4	8	1	1	4	8	1	1560171468	0.5501379967
1560171469	1.291665077	6	47	2	1	5	4	9	1	2	4	8	1	1560171469	0.5834488869
1560171470	1.299998045	6	48	2	1	5	4	10	2	2	4	7	1	1560171471	0.6833810806
1560171472	1.291664839	6	49	2	1	5	4	11	1	1	4	7	1	1560171472	0.5835068226
1560171473	1.291652918	6	50	2	1	5	4	12	1	2	4	7	1	1560171473	0.4833889008
1560171474	1.300023079	6	51	2	1	5	4	13	1	2	4	6	1	1560171474	0.4917891026
1560171475	1.30001092	6	52	2	1	5	4	14	2	2	4	6	1	1560171476	0.5501849651
1560171477	1.291668177	6	53	2	1	5	4	15	1	2	4	6	1	1560171477	0.6001269817
1560171478	1.291753054	6	54	2	1	5	4	16	2	1	4	7	0	1560171478	0.7087030411
1560171479	1.299944162	6	55	2	1	5	4	17	2	2	4	8	0	1560171480	0.6335158348
1560171481	1.291759014	6	56	2	1	5	4	18	2	1	4	9	0	1560171481	0.5585000515
1560171482	1.29173398	6	57	2	1	9	5	1	3	3	4	9	n/a	n/a	n/a
1560171483	1.291741133	6	58	2	1	9	5	2	3	3	4	9	n/a	n/a	n/a
1560171485	1.291693926	6	59	2	1	9	5	3	3	3	4	9	n/a	n/a	n/a
1560171486	1.291613817	6	60	2	1	9	5	4	3	3	4	9	n/a	n/a	n/a
1560171487	1.291755915	6	61	2	1	9	5	5	3	3	4	9	n/a	n/a	n/a
1560171488	1.29161191	6	62	2	1	9	5	6	3	3	4	9	n/a	n/a	n/a
1560171490	1.291684151	6	63	2	1	9	5	7	3	3	4	9	n/a	n/a	n/a
1560171491	1.291667938	6	64	2	1	9	5	8	3	3	4	9	n/a	n/a	n/a
1560171492	1.291678905	6	65	2	1	9	5	9	3	3	4	9	n/a	n/a	n/a
1560171494	1.291771173	6	66	2	1	9	5	10	3	3	4	9	n/a	n/a	n/a
1560171495	1.291712999	6	67	2	1	1	6	1	2	2	4	9	1	1560171495	0.7837760448
1560171496	1.29166007	6	68	2	1	1	6	2	1	2	4	9	1	1560171497	0.6500101089
1560171498	1.300065041	6	69	2	1	1	6	3	2	1	4	8	1	1560171498	0.9084229469
1560171499	1.299945116	6	70	2	1	1	6	4	1	1	4	8	n/a	1560171499	n/a
1560171500	1.291757107	6	71	2	1	1	6	5	2	2	4	8	1	1560171501	0.6334531307
1560171502	1.291677952	6	72	2	1	1	6	6	2	1	4	8	1	1560171502	0.7500641346
1560171503	1.291679144	6	73	2	1	1	6	7	2	2	4	7	1	1560171503	0.6250989437
1560171504	1.300029039	6	74	2	1	1	6	8	2	1	4	7	1	1560171504	0.6419358253
1560171505	1.291722059	6	75	2	1	1	6	9	1	2	4	7	1	1560171506	0.658465147
1560171507	1.300066948	6	76	2	1	1	6	10	2	2	4	6	1	1560171507	0.6667339802
1560171508	1.291650057	6	77	2	1	1	6	11	1	2	4	6	1	1560171508	0.7666859627
1560171509	1.299995184	6	78	2	1	1	6	12	2	1	4	6	n/a	1560171510	n/a
1560171511	1.291678905	6	79	2	1	1	6	13	2	1	4	6	1	1560171511	0.8417749405
1560171512	1.29995203	6	80	2	1	1	6	14	1	1	4	5	1	1560171512	0.6667788029
1560171513	1.299993038	6	81	2	1	1	6	15	2	1	4	5	1	1560171514	0.6167221069
1560171515	1.291669846	6	82	2	1	1	6	16	2	1	4	6	0	1560171515	0.6750450134
1560171516	1.291649103	6	83	2	1	1	6	17	2	1	4	6	n/a	1560171516	n/a
1560171517	1.291661978	6	84	2	1	1	6	18	1	2	4	6	1	1560171517	0.8667011261
1560171518	1.291390896	6	85	2	1	9	7	1	3	3	4	6	n/a	n/a	n/a
1560171520	1.291672945	6	86	2	1	9	7	2	3	3	4	6	n/a	n/a	n/a
1560171521	1.291599035	6	87	2	1	9	7	3	3	3	4	6	n/a	n/a	n/a
1560171522	1.291681051	6	88	2	1	9	7	4	3	3	4	6	n/a	n/a	n/a
1560171524	1.291714907	6	89	2	1	9	7	5	3	3	4	6	n/a	n/a	n/a
1560171525	1.29162097	6	90	2	1	9	7	6	3	3	4	6	n/a	n/a	n/a
1560171526	1.291667938	6	91	2	1	9	7	7	3	3	4	6	n/a	n/a	n/a
1560171528	1.291665077	6	92	2	1	9	7	8	3	3	4	6	n/a	n/a	n/a
1560171529	1.291670084	6	93	2	1	9	7	9	3	3	4	6	n/a	n/a	n/a
1560171530	1.291663885	6	94	2	1	9	7	10	3	3	4	6	n/a	n/a	n/a
1560171531	1.291682005	6	95	2	1	5	8	1	2	2	4	6	1	1560171532	0.8167259693
1560171533	1.291659117	6	96	2	1	5	8	2	1	2	4	5	1	1560171533	0.8834891319
1560171534	1.299993992	6	97	2	1	5	8	3	1	2	4	6	0	1560171534	0.6085920334
1560171535	1.300081015	6	98	2	1	5	8	4	1	1	4	6	1	1560171536	0.6251289845
1560171537	1.291658878	6	99	2	1	5	8	5	2	2	4	6	n/a	1560171537	n/a
1560171538	1.291771889	6	100	2	1	5	8	6	1	2	4	6	n/a	1560171538	n/a
1560171539	1.291666985	6	101	2	1	5	8	7	2	1	4	6	1	1560171540	0.5584568977
1560171541	1.299998045	6	102	2	1	5	8	8	1	1	4	5	1	1560171541	0.6001660824
1560171542	1.299996138	6	103	2	1	5	8	9	1	2	4	5	1	1560171542	0.6168348789
1560171543	1.291604996	6	104	2	1	5	8	10	1	1	4	5	1	1560171544	0.4583480358
1560171544	1.291751146	6	105	2	1	5	8	11	1	1	4	4	1	1560171545	0.6500430107
1560171546	1.299983978	6	106	2	1	5	8	12	1	2	4	5	0	1560171546	0.7334909439
1560171547	1.299995899	6	107	2	1	5	8	13	1	2	4	6	0	1560171547	0.8668019772
1560171548	1.291658163	6	108	2	1	5	8	14	1	1	4	6	n/a	1560171549	n/a
1560171550	1.299934864	6	109	2	1	5	8	15	2	2	4	6	1	1560171550	0.7833549976
1560171551	1.30001092	6	110	2	1	5	8	16	1	2	4	6	1	1560171551	0.9167399406
1560171552	1.291657925	6	111	2	1	5	8	17	2	2	4	7	0	1560171553	0.8501770496
1560171554	1.291666985	6	112	2	1	5	8	18	1	1	4	8	0	1560171554	0.8167979717
1560171555	1.291727066	6	113	2	1	9	9	1	3	3	4	8	n/a	n/a	n/a
1560171556	1.291690111	6	114	2	1	9	9	2	3	3	4	8	n/a	n/a	n/a
1560171558	1.291662931	6	115	2	1	9	9	3	3	3	4	8	n/a	n/a	n/a
1560171559	1.291661024	6	116	2	1	9	9	4	3	3	4	8	n/a	n/a	n/a
1560171560	1.291744947	6	117	2	1	9	9	5	3	3	4	8	n/a	n/a	n/a
1560171561	1.291652918	6	118	2	1	9	9	6	3	3	4	8	n/a	n/a	n/a
1560171563	1.291629076	6	119	2	1	9	9	7	3	3	4	8	n/a	n/a	n/a
1560171564	1.291650057	6	120	2	1	9	9	8	3	3	4	8	n/a	n/a	n/a
1560171565	1.291664124	6	121	2	1	9	9	9	3	3	4	8	n/a	n/a	n/a
1560171567	1.291667938	6	122	2	1	9	9	10	3	3	4	8	n/a	n/a	n/a
