onset	duration	run_number	trial_number	att_task	seq_acquisition	bar_direction	bar_period	bar_step	stim_noise_ori	stim_stair_val	response_val	probe_time	reaction_time
6139.260056	1.2003394	1	1	1	1	9	1	1	3	9	n/a	n/a	n/a
6140.468767	1.1921513	1	2	1	1	9	1	2	3	9	n/a	n/a	n/a
6141.669256	1.1921352	1	3	1	1	9	1	3	3	9	n/a	n/a	n/a
6142.869632	1.1923798	1	4	1	1	9	1	4	3	9	n/a	n/a	n/a
6144.071013	1.2004074	1	5	1	1	9	1	5	3	9	n/a	n/a	n/a
6145.278987	1.1921425	1	6	1	1	9	1	6	3	9	n/a	n/a	n/a
6146.479419	1.1920967	1	7	1	1	9	1	7	3	9	n/a	n/a	n/a
6147.679829	1.1921525	1	8	1	1	9	1	8	3	9	n/a	n/a	n/a
6148.880363	1.1921808	1	9	1	1	9	1	9	3	9	n/a	n/a	n/a
6150.080802	1.1920845	1	10	1	1	9	1	10	3	9	n/a	n/a	n/a
6151.453174	1.220375	1	11	1	1	1	2	1	1	9	n/a	6151.806628	n/a
6152.681869	1.1920976	1	12	1	1	1	2	2	1	9	n/a	6153.023744	n/a
6153.882366	1.2255282	1	13	1	1	1	2	3	2	9	n/a	6154.224258	n/a
6155.116129	1.2338597	1	14	1	1	1	2	4	1	9	n/a	6155.458096	n/a
6156.358313	1.2006275	1	15	1	1	1	2	5	2	9	n/a	6156.701088	n/a
6157.567142	1.1920891	1	16	1	1	1	2	6	1	9	n/a	6157.909184	n/a
6158.767697	1.2004765	1	17	1	1	1	2	7	2	9	n/a	6159.109408	n/a
6159.976426	1.2088086	1	18	1	1	1	2	8	1	9	n/a	6160.318298	n/a
6161.19364	1.1921906	1	19	1	1	1	2	9	2	9	n/a	6161.535359	n/a
6162.394172	1.2254138	1	20	1	1	1	2	10	2	9	n/a	6162.735878	n/a
6163.627975	1.2254457	1	21	1	1	1	2	11	1	9	n/a	6163.969709	n/a
6164.861728	1.2255789	1	22	1	1	1	2	12	1	9	n/a	6165.203538	n/a
6166.09559	1.1921411	1	23	1	1	1	2	13	2	9	n/a	6166.437453	n/a
6167.296114	1.2337111	1	24	1	1	1	2	14	2	9	n/a	6167.637848	n/a
6168.538292	1.2254964	1	25	1	1	1	2	15	2	9	n/a	6168.880111	n/a
6169.772117	1.22551	1	26	1	1	1	2	16	1	9	n/a	6170.11386	n/a
6171.005877	1.2338601	1	27	1	1	1	2	17	2	9	n/a	6171.347773	n/a
6172.248066	1.2005657	1	28	1	1	1	2	18	2	9	n/a	6172.589864	n/a
6173.608634	1.2324384	1	29	1	1	9	3	1	3	9	n/a	n/a	n/a
6174.849447	1.1917596	1	30	1	1	9	3	2	3	9	n/a	n/a	n/a
6176.049616	1.1921022	1	31	1	1	9	3	3	3	9	n/a	n/a	n/a
6177.250138	1.1921143	1	32	1	1	9	3	4	3	9	n/a	n/a	n/a
6178.450606	1.1920919	1	33	1	1	9	3	5	3	9	n/a	n/a	n/a
6179.651107	1.1920414	1	34	1	1	9	3	6	3	9	n/a	n/a	n/a
6180.851675	1.1920598	1	35	1	1	9	3	7	3	9	n/a	n/a	n/a
6182.052056	1.1921644	1	36	1	1	9	3	8	3	9	n/a	n/a	n/a
6183.252489	1.1921236	1	37	1	1	9	3	9	3	9	n/a	n/a	n/a
6184.453013	1.1920635	1	38	1	1	9	3	10	3	9	n/a	n/a	n/a
6185.804127	1.2082256	1	39	1	1	3	4	1	2	9	n/a	6186.153629	n/a
6187.020657	1.2339204	1	40	1	1	3	4	2	2	9	n/a	6187.362506	n/a
6188.262827	1.2255507	1	41	1	1	3	4	3	2	9	n/a	6188.604722	n/a
6189.496706	1.2588234	1	42	1	1	3	4	4	1	9	n/a	6189.84683	n/a
6190.763854	1.217157	1	43	1	1	3	4	5	2	9	n/a	6191.105714	n/a
6191.989406	1.2254929	1	44	1	1	3	4	6	1	9	n/a	6192.331102	n/a
6193.223106	1.2423729	1	45	1	1	3	4	7	1	9	n/a	6193.573329	n/a
6194.473749	1.2254413	1	46	1	1	3	4	8	2	9	n/a	6194.815547	n/a
6195.707587	1.2420578	1	47	1	1	3	4	9	1	9	n/a	6196.057712	n/a
6196.958076	1.2254086	1	48	1	1	3	4	10	1	9	n/a	6197.299821	n/a
6198.191897	1.2338451	1	49	1	1	3	4	11	1	9	n/a	6198.533611	n/a
6199.434096	1.2338785	1	50	1	1	3	4	12	1	9	n/a	6199.784228	n/a
6200.67622	1.233736	1	51	1	1	3	4	13	1	9	n/a	6201.018047	n/a
6201.91841	1.2338268	1	52	1	1	3	4	14	1	9	n/a	6202.260193	n/a
6203.160519	1.2338834	1	53	1	1	3	4	15	1	9	n/a	6203.510583	n/a
6204.402687	1.2255648	1	54	1	1	3	4	16	1	9	n/a	6204.74455	n/a
6205.636573	1.2421057	1	55	1	1	3	4	17	2	9	n/a	6205.978388	n/a
6206.887081	1.2254929	1	56	1	1	3	4	18	1	9	n/a	6207.228765	n/a
6208.279788	1.1999885	1	57	1	1	9	5	1	3	9	n/a	n/a	n/a
6209.488036	1.1922297	1	58	1	1	9	5	2	3	9	n/a	n/a	n/a
6210.688622	1.1921085	1	59	1	1	9	5	3	3	9	n/a	n/a	n/a
6211.889017	1.1920753	1	60	1	1	9	5	4	3	9	n/a	n/a	n/a
6213.089576	1.1921669	1	61	1	1	9	5	5	3	9	n/a	n/a	n/a
6214.290055	1.1920605	1	62	1	1	9	5	6	3	9	n/a	n/a	n/a
6215.490552	1.1921397	1	63	1	1	9	5	7	3	9	n/a	n/a	n/a
6216.691043	1.1920433	1	64	1	1	9	5	8	3	9	n/a	n/a	n/a
6217.891453	1.1920884	1	65	1	1	9	5	9	3	9	n/a	n/a	n/a
6219.091988	1.1921594	1	66	1	1	9	5	10	3	9	n/a	n/a	n/a
6220.451286	1.2000747	1	67	1	1	5	6	1	2	9	n/a	6220.800911	n/a
6221.659596	1.1921534	1	68	1	1	5	6	2	2	9	n/a	6222.001443	n/a
6222.860199	1.1921108	1	69	1	1	5	6	3	2	9	n/a	6223.201963	n/a
6224.060607	1.2005033	1	70	1	1	5	6	4	2	9	n/a	6224.402487	n/a
6225.269503	1.1921421	1	71	1	1	5	6	5	2	9	n/a	6225.611264	n/a
6226.46987	1.1922077	1	72	1	1	5	6	6	2	9	n/a	6226.811693	n/a
6227.670467	1.2088145	1	73	1	1	5	6	7	1	9	n/a	6228.020614	n/a
6228.887601	1.192159	1	74	1	1	5	6	8	2	9	n/a	6229.229423	n/a
6230.088036	1.2088604	1	75	1	1	5	6	9	1	9	n/a	6230.429875	n/a
6231.305149	1.2254844	1	76	1	1	5	6	10	1	9	n/a	6231.647022	n/a
6232.538975	1.2255879	1	77	1	1	5	6	11	2	9	n/a	6232.880909	n/a
6233.772926	1.1921543	1	78	1	1	5	6	12	2	9	n/a	6234.114712	n/a
6234.973322	1.2255586	1	79	1	1	5	6	13	2	9	n/a	6235.31517	n/a
6236.207178	1.2338912	1	80	1	1	5	6	14	1	9	n/a	6236.549008	n/a
6237.449313	1.1921531	1	81	1	1	5	6	15	1	9	n/a	6237.791223	n/a
6238.649819	1.2015241	1	82	1	1	5	6	16	1	9	n/a	6238.991612	n/a
6239.8586	1.192161	1	83	1	1	5	6	17	1	9	n/a	6240.20042	n/a
6241.059207	1.1921072	1	84	1	1	5	6	18	1	9	n/a	6241.401015	n/a
6242.410252	1.2165285	1	85	1	1	9	7	1	3	9	n/a	n/a	n/a
6243.635148	1.192225	1	86	1	1	9	7	2	3	9	n/a	n/a	n/a
6244.835695	1.1920394	1	87	1	1	9	7	3	3	9	n/a	n/a	n/a
6246.036218	1.1921157	1	88	1	1	9	7	4	3	9	n/a	n/a	n/a
6247.236703	1.1920585	1	89	1	1	9	7	5	3	9	n/a	n/a	n/a
6248.437127	1.1921339	1	90	1	1	9	7	6	3	9	n/a	n/a	n/a
6249.637669	1.1920675	1	91	1	1	9	7	7	3	9	n/a	n/a	n/a
6250.838037	1.1921451	1	92	1	1	9	7	8	3	9	n/a	n/a	n/a
6252.038629	1.1920362	1	93	1	1	9	7	9	3	9	n/a	n/a	n/a
6253.239066	1.1921482	1	94	1	1	9	7	10	3	9	n/a	n/a	n/a
6254.59016	1.2082176	1	95	1	1	7	8	1	1	9	n/a	6254.939675	n/a
6255.806785	1.2004614	1	96	1	1	7	8	2	2	9	n/a	6256.156932	n/a
6257.015676	1.2004451	1	97	1	1	7	8	3	1	9	n/a	6257.357362	n/a
6258.224408	1.2588924	1	98	1	1	7	8	4	2	9	n/a	6258.582879	n/a
6259.491555	1.2005454	1	99	1	1	7	8	5	1	9	n/a	6259.841674	n/a
6260.700407	1.192117	1	100	1	1	7	8	6	1	9	n/a	6261.042252	n/a
6261.900926	1.2337064	1	101	1	1	7	8	7	2	9	n/a	6262.251085	n/a
6263.143076	1.2421748	1	102	1	1	7	8	8	2	9	n/a	6263.493207	n/a
6264.393549	1.2338985	1	103	1	1	7	8	9	2	9	n/a	6264.735398	n/a
6265.635689	1.2005554	1	104	1	1	7	8	10	1	9	n/a	6265.977569	n/a
6266.845494	1.2328918	1	105	1	1	7	8	11	1	9	n/a	6267.194732	n/a
6268.086759	1.2088294	1	106	1	1	7	8	12	1	9	n/a	6268.428576	n/a
6269.303932	1.1920937	1	107	1	1	7	8	13	1	9	n/a	6269.645703	n/a
6270.504327	1.2422076	1	108	1	1	7	8	14	1	9	n/a	6270.854452	n/a
6271.754926	1.1921125	1	109	1	1	7	8	15	1	9	n/a	6272.096694	n/a
6272.955321	1.2422255	1	110	1	1	7	8	16	1	9	n/a	6273.313869	n/a
6274.205827	1.1922236	1	111	1	1	7	8	17	1	9	n/a	6274.547691	n/a
6275.406304	1.2255695	1	112	1	1	7	8	18	1	9	n/a	6275.74818	n/a
6276.790786	1.1999319	1	113	1	1	9	9	1	3	9	n/a	n/a	n/a
6277.999053	1.192182	1	114	1	1	9	9	2	3	9	n/a	n/a	n/a
6279.199481	1.1921589	1	115	1	1	9	9	3	3	9	n/a	n/a	n/a
6280.400061	1.1921096	1	116	1	1	9	9	4	3	9	n/a	n/a	n/a
6281.600526	1.1920626	1	117	1	1	9	9	5	3	9	n/a	n/a	n/a
6282.801001	1.1921474	1	118	1	1	9	9	6	3	9	n/a	n/a	n/a
6284.001496	1.1920549	1	119	1	1	9	9	7	3	9	n/a	n/a	n/a
6285.20192	1.1921646	1	120	1	1	9	9	8	3	9	n/a	n/a	n/a
6286.402477	1.1921539	1	121	1	1	9	9	9	3	9	n/a	n/a	n/a
6287.602913	1.1921425	1	122	1	1	9	9	10	3	9	n/a	n/a	n/a
