onset	duration	run_number	trial_number	att_task	seq_acquisition	bar_direction	bar_period	bar_step	stim_noise_ori	stim_stair_val	response_val	probe_time	reaction_time
6375.296899	1.1919721	2	1	1	2	9	1	1	3	9	n/a	n/a	n/a
6376.49726	1.1922111	2	2	1	2	9	1	2	3	9	n/a	n/a	n/a
6377.697641	1.1922145	2	3	1	2	9	1	3	3	9	n/a	n/a	n/a
6378.898218	1.1921955	2	4	1	2	9	1	4	3	9	n/a	n/a	n/a
6380.09953	1.1920357	2	5	1	2	9	1	5	3	9	n/a	n/a	n/a
6381.299054	1.1921898	2	6	1	2	9	1	6	3	9	n/a	n/a	n/a
6382.499576	1.1921506	2	7	1	2	9	1	7	3	9	n/a	n/a	n/a
6383.700037	1.192086	2	8	1	2	9	1	8	3	9	n/a	n/a	n/a
6384.900536	1.1920524	2	9	1	2	9	1	9	3	9	n/a	n/a	n/a
6386.101009	1.1921337	2	10	1	2	9	1	10	3	9	n/a	n/a	n/a
6387.472125	1.204911	2	11	1	2	1	2	1	1	9	n/a	6387.826887	n/a
6388.685312	1.242225	2	12	1	2	1	2	2	2	9	n/a	6389.035668	n/a
6389.935898	1.2004203	2	13	1	2	1	2	3	1	9	n/a	6390.277836	n/a
6391.144726	1.1921487	2	14	1	2	1	2	4	1	9	n/a	6391.486609	n/a
6392.345143	1.1922278	2	15	1	2	1	2	5	2	9	n/a	6392.6879	n/a
6393.545601	1.192422	2	16	1	2	1	2	6	1	9	n/a	6393.887655	n/a
6394.746186	1.2254011	2	17	1	2	1	2	7	1	9	n/a	6395.087975	n/a
6395.979985	1.1921777	2	18	1	2	1	2	8	1	9	n/a	6396.321709	n/a
6397.180488	1.2003648	2	19	1	2	1	2	9	1	9	n/a	6397.522293	n/a
6398.389315	1.1921625	2	20	1	2	1	2	10	1	9	n/a	6398.7311	n/a
6399.589709	1.2005882	2	21	1	2	1	2	11	1	9	n/a	6399.931552	n/a
6400.79863	1.2003824	2	22	1	2	1	2	12	2	9	n/a	6401.140426	n/a
6402.007462	1.1921015	2	23	1	2	1	2	13	2	9	n/a	6402.349329	n/a
6403.207919	1.192068	2	24	1	2	1	2	14	1	9	n/a	6403.54962	n/a
6404.408395	1.1921523	2	25	1	2	1	2	15	2	9	n/a	6404.750082	n/a
6405.608911	1.200433	2	26	1	2	1	2	16	1	9	n/a	6405.950753	n/a
6406.817769	1.1920518	2	27	1	2	1	2	17	1	9	n/a	6407.159469	n/a
6408.018097	1.192144	2	28	1	2	1	2	18	2	9	n/a	6408.3599	n/a
6409.370517	1.2321893	2	29	1	2	9	3	1	3	9	n/a	n/a	n/a
6410.611027	1.1920395	2	30	1	2	9	3	2	3	9	n/a	n/a	n/a
6411.811325	1.1921073	2	31	1	2	9	3	3	3	9	n/a	n/a	n/a
6413.011815	1.1922127	2	32	1	2	9	3	4	3	9	n/a	n/a	n/a
6414.212375	1.1921199	2	33	1	2	9	3	5	3	9	n/a	n/a	n/a
6415.412765	1.1923134	2	34	1	2	9	3	6	3	9	n/a	n/a	n/a
6416.613332	1.1921012	2	35	1	2	9	3	7	3	9	n/a	n/a	n/a
6417.813789	1.1920342	2	36	1	2	9	3	8	3	9	n/a	n/a	n/a
6419.014285	1.1921734	2	37	1	2	9	3	9	3	9	n/a	n/a	n/a
6420.214756	1.1921401	2	38	1	2	9	3	10	3	9	n/a	n/a	n/a
6421.565798	1.2166965	2	39	1	2	3	4	1	1	9	n/a	6421.932097	n/a
6422.790714	1.2005119	2	40	1	2	3	4	2	2	9	n/a	6423.132633	n/a
6423.999566	1.2004876	2	41	1	2	3	4	3	1	9	n/a	6424.341526	n/a
6425.208404	1.1922058	2	42	1	2	3	4	4	1	9	n/a	6425.550138	n/a
6426.409035	1.2087699	2	43	1	2	3	4	5	2	9	n/a	6426.750835	n/a
6427.626139	1.2171091	2	44	1	2	3	4	6	1	9	n/a	6427.984611	n/a
6428.851642	1.2254691	2	45	1	2	3	4	7	2	9	n/a	6429.193348	n/a
6430.085387	1.2088865	2	46	1	2	3	4	8	1	9	n/a	6430.42725	n/a
6431.302486	1.233917	2	47	1	2	3	4	9	2	9	n/a	6431.644388	n/a
6432.544653	1.200589	2	48	1	2	3	4	10	2	9	n/a	6432.89488	n/a
6433.753545	1.1920972	2	49	1	2	3	4	11	2	9	n/a	6434.095293	n/a
6434.954086	1.217156	2	50	1	2	3	4	12	2	9	n/a	6435.304215	n/a
6436.179539	1.1921614	2	51	1	2	3	4	13	1	9	n/a	6436.521342	n/a
6437.379971	1.1922401	2	52	1	2	3	4	14	1	9	n/a	6437.721777	n/a
6438.580551	1.19215	2	53	1	2	3	4	15	2	9	n/a	6438.922339	n/a
6439.780939	1.2005681	2	54	1	2	3	4	16	1	9	n/a	6440.122793	n/a
6440.989789	1.2338743	2	55	1	2	3	4	17	1	9	n/a	6441.331603	n/a
6442.232007	1.1920622	2	56	1	2	3	4	18	1	9	n/a	6442.573739	n/a
6443.591338	1.1999238	2	57	1	2	9	5	1	3	9	n/a	n/a	n/a
6444.799709	1.192069	2	58	1	2	9	5	2	3	9	n/a	n/a	n/a
6446.000091	1.1921592	2	59	1	2	9	5	3	3	9	n/a	n/a	n/a
6447.200647	1.1921634	2	60	1	2	9	5	4	3	9	n/a	n/a	n/a
6448.401176	1.1920896	2	61	1	2	9	5	5	3	9	n/a	n/a	n/a
6449.601537	1.1922013	2	62	1	2	9	5	6	3	9	n/a	n/a	n/a
6450.802147	1.1921575	2	63	1	2	9	5	7	3	9	n/a	n/a	n/a
6452.002528	1.1921661	2	64	1	2	9	5	8	3	9	n/a	n/a	n/a
6453.203041	1.1922428	2	65	1	2	9	5	9	3	9	n/a	n/a	n/a
6454.4036	1.1920522	2	66	1	2	9	5	10	3	9	n/a	n/a	n/a
6455.762699	1.2001514	2	67	1	2	5	6	1	2	9	n/a	6456.112579	n/a
6456.971204	1.192215	2	68	1	2	5	6	2	1	9	n/a	6457.313268	n/a
6458.17329	1.1988829	2	69	1	2	5	6	3	1	9	n/a	6458.521841	n/a
6459.380602	1.1921382	2	70	1	2	5	6	4	2	9	n/a	6459.722402	n/a
6460.580952	1.1921979	2	71	1	2	5	6	5	2	9	n/a	6460.922832	n/a
6461.781566	1.2004367	2	72	1	2	5	6	6	2	9	n/a	6462.123434	n/a
6462.99056	1.1919315	2	73	1	2	5	6	7	1	9	n/a	6463.332064	n/a
6464.190857	1.1921691	2	74	1	2	5	6	8	1	9	n/a	6464.532713	n/a
6465.39125	1.1921469	2	75	1	2	5	6	9	1	9	n/a	6465.733149	n/a
6466.591786	1.1921838	2	76	1	2	5	6	10	1	9	n/a	6466.933642	n/a
6467.792285	1.2004248	2	77	1	2	5	6	11	2	9	n/a	6468.134131	n/a
6469.001071	1.2004454	2	78	1	2	5	6	12	1	9	n/a	6469.342964	n/a
6470.209919	1.1921804	2	79	1	2	5	6	13	1	9	n/a	6470.55169	n/a
6471.410448	1.1921281	2	80	1	2	5	6	14	1	9	n/a	6471.752303	n/a
6472.610881	1.192203	2	81	1	2	5	6	15	2	9	n/a	6472.952632	n/a
6473.811437	1.1921383	2	82	1	2	5	6	16	1	9	n/a	6474.153252	n/a
6475.011824	1.1921173	2	83	1	2	5	6	17	1	9	n/a	6475.353694	n/a
6476.212413	1.2171374	2	84	1	2	5	6	18	2	9	n/a	6476.554156	n/a
6477.588476	1.1999717	2	85	1	2	9	7	1	3	9	n/a	n/a	n/a
6478.796781	1.1920257	2	86	1	2	9	7	2	3	9	n/a	n/a	n/a
6479.997258	1.1921661	2	87	1	2	9	7	3	3	9	n/a	n/a	n/a
6481.197744	1.1921036	2	88	1	2	9	7	4	3	9	n/a	n/a	n/a
6482.398182	1.1920939	2	89	1	2	9	7	5	3	9	n/a	n/a	n/a
6483.598848	1.1920178	2	90	1	2	9	7	6	3	9	n/a	n/a	n/a
6484.799162	1.1921165	2	91	1	2	9	7	7	3	9	n/a	n/a	n/a
6485.999707	1.1921132	2	92	1	2	9	7	8	3	9	n/a	n/a	n/a
6487.200174	1.1921145	2	93	1	2	9	7	9	3	9	n/a	n/a	n/a
6488.400591	1.1922728	2	94	1	2	9	7	10	3	9	n/a	n/a	n/a
6489.751382	1.2336385	2	95	1	2	7	8	1	1	9	n/a	6490.126374	n/a
6490.993318	1.2588881	2	96	1	2	7	8	2	2	9	n/a	6491.385152	n/a
6492.260507	1.2088284	2	97	1	2	7	8	3	1	9	n/a	6492.610591	n/a
6493.477665	1.2005101	2	98	1	2	7	8	4	1	9	n/a	6493.81948	n/a
6494.68653	1.2337684	2	99	1	2	7	8	5	2	9	n/a	6495.028339	n/a
6495.928692	1.2338113	2	100	1	2	7	8	6	2	9	n/a	6496.270365	n/a
6497.170839	1.192094	2	101	1	2	7	8	7	2	9	n/a	6497.512715	n/a
6498.371354	1.2004692	2	102	1	2	7	8	8	1	9	n/a	6498.713107	n/a
6499.580053	1.1921651	2	103	1	2	7	8	9	2	9	n/a	6499.921955	n/a
6500.780695	1.1920115	2	104	1	2	7	8	10	1	9	n/a	6501.122454	n/a
6501.981125	1.2004767	2	105	1	2	7	8	11	2	9	n/a	6502.322936	n/a
6503.189962	1.1921394	2	106	1	2	7	8	12	1	9	n/a	6503.531686	n/a
6504.390403	1.1920819	2	107	1	2	7	8	13	1	9	n/a	6504.732149	n/a
6505.590893	1.1921769	2	108	1	2	7	8	14	2	9	n/a	6505.932715	n/a
6506.791388	1.2255345	2	109	1	2	7	8	15	2	9	n/a	6507.133222	n/a
6508.025253	1.2003464	2	110	1	2	7	8	16	2	9	n/a	6508.366954	n/a
6509.234075	1.1921512	2	111	1	2	7	8	17	2	9	n/a	6509.575871	n/a
6510.434512	1.1920863	2	112	1	2	7	8	18	2	9	n/a	6510.776357	n/a
6511.785585	1.2000757	2	113	1	2	9	9	1	3	9	n/a	n/a	n/a
6512.99402	1.1920576	2	114	1	2	9	9	2	3	9	n/a	n/a	n/a
6514.194408	1.1921509	2	115	1	2	9	9	3	3	9	n/a	n/a	n/a
6515.394804	1.1920879	2	116	1	2	9	9	4	3	9	n/a	n/a	n/a
6516.595387	1.1921237	2	117	1	2	9	9	5	3	9	n/a	n/a	n/a
6517.795842	1.1921398	2	118	1	2	9	9	6	3	9	n/a	n/a	n/a
6518.996342	1.192146	2	119	1	2	9	9	7	3	9	n/a	n/a	n/a
6520.196837	1.1921295	2	120	1	2	9	9	8	3	9	n/a	n/a	n/a
6521.397248	1.1921563	2	121	1	2	9	9	9	3	9	n/a	n/a	n/a
6522.59782	1.1921781	2	122	1	2	9	9	10	3	9	n/a	n/a	n/a
