onset	duration	run_number	trial_number	att_task	seq_acquisition	bar_direction	bar_period	bar_step	stim_noise_ori	stim_stair_val	response_val	probe_time	reaction_time
9008.94728	1.1919711	10	1	1	2	9	1	1	3	7	n/a	n/a	n/a
9010.147467	1.1922472	10	2	1	2	9	1	2	3	7	n/a	n/a	n/a
9011.348089	1.1921947	10	3	1	2	9	1	3	3	7	n/a	n/a	n/a
9012.548569	1.192093	10	4	1	2	9	1	4	3	7	n/a	n/a	n/a
9013.749845	1.1922048	10	5	1	2	9	1	5	3	7	n/a	n/a	n/a
9014.949529	1.1921127	10	6	1	2	9	1	6	3	7	n/a	n/a	n/a
9016.149844	1.1922633	10	7	1	2	9	1	7	3	7	n/a	n/a	n/a
9017.350435	1.1921597	10	8	1	2	9	1	8	3	7	n/a	n/a	n/a
9018.550819	1.1921471	10	9	1	2	9	1	9	3	7	n/a	n/a	n/a
9019.751323	1.1922356	10	10	1	2	9	1	10	3	7	n/a	n/a	n/a
9020.969397	1.2079538	10	11	1	2	1	2	1	1	7	1	9021.318793	0.6287314
9022.185748	1.2253586	10	12	1	2	1	2	2	2	7	n/a	9022.527676	n/a
9023.419598	1.2253807	10	13	1	2	1	2	3	2	7	n/a	9023.761415	n/a
9024.653319	1.2338595	10	14	1	2	1	2	4	1	7	n/a	9024.995267	n/a
9025.895557	1.2254587	10	15	1	2	1	2	5	1	7	n/a	9026.238252	n/a
9027.129304	1.1921464	10	16	1	2	1	2	6	2	7	n/a	9027.471412	n/a
9028.32987	1.1920835	10	17	1	2	1	2	7	1	8	0	9028.671709	0.0037354
9029.530288	1.1921263	10	18	1	2	1	2	8	2	8	1	9029.872154	0.0448888
9030.730834	1.1921673	10	19	1	2	1	2	9	1	9	0	9031.072591	0.5869783
9031.931371	1.2253556	10	20	1	2	1	2	10	2	9	n/a	9032.273151	n/a
9033.165168	1.2004811	10	21	1	2	1	2	11	2	9	1	9033.506922	0.5618953
9034.374031	1.1921015	10	22	1	2	1	2	12	1	9	1	9034.715738	0.6033035
9035.57447	1.2088102	10	23	1	2	1	2	13	2	9	n/a	9035.916237	n/a
9036.791661	1.2003874	10	24	1	2	1	2	14	2	8	1	9037.133354	0.004688499999
9038.00046	1.2004424	10	25	1	2	1	2	15	1	9	0	9038.342249	0.169967
9039.209311	1.2337183	10	26	1	2	1	2	16	2	9	1	9039.550991	0.8284782
9040.451453	1.2004739	10	27	1	2	1	2	17	2	9	1	9040.79317	0.7452939
9041.660234	1.1922129	10	28	1	2	1	2	18	2	10	0	9042.00202	0.6702694
9042.869531	1.1918003	10	29	1	2	9	3	1	3	10	n/a	n/a	n/a
9044.0698	1.1919522	10	30	1	2	9	3	2	3	10	n/a	n/a	n/a
9045.270102	1.1921331	10	31	1	2	9	3	3	3	10	n/a	n/a	n/a
9046.470542	1.1921464	10	32	1	2	9	3	4	3	10	n/a	n/a	n/a
9047.67106	1.1921184	10	33	1	2	9	3	5	3	10	n/a	n/a	n/a
9048.871471	1.1921345	10	34	1	2	9	3	6	3	10	n/a	n/a	n/a
9050.072021	1.1921229	10	35	1	2	9	3	7	3	10	n/a	n/a	n/a
9051.27248	1.1921093	10	36	1	2	9	3	8	3	10	n/a	n/a	n/a
9052.473034	1.1921307	10	37	1	2	9	3	9	3	10	n/a	n/a	n/a
9053.673541	1.192083	10	38	1	2	9	3	10	3	10	n/a	n/a	n/a
9054.882243	1.1922481	10	39	1	2	3	4	1	2	10	1	9055.224117	0.5704434
9056.082772	1.2005229	10	40	1	2	3	4	2	2	10	1	9056.424564	0.6783892
9057.291598	1.2004456	10	41	1	2	3	4	3	1	10	n/a	9057.633454	n/a
9058.500482	1.2337627	10	42	1	2	3	4	4	1	9	1	9058.84226	0.8119944
9059.743557	1.199465	10	43	1	2	3	4	5	2	9	1	9060.092691	0.6118533
9060.951433	1.2087508	10	44	1	2	3	4	6	1	9	1	9061.293181	0.6715748
9062.168623	1.225491	10	45	1	2	3	4	7	2	8	1	9062.510364	0.619847
9063.402409	1.1921261	10	46	1	2	3	4	8	2	8	n/a	9063.744189	n/a
9064.602958	1.1921385	10	47	1	2	3	4	9	2	8	n/a	9064.944756	n/a
9065.803356	1.1921444	10	48	1	2	3	4	10	2	8	0	9066.145236	0.8538985
9067.003922	1.2338146	10	49	1	2	3	4	11	1	9	n/a	9067.345711	n/a
9068.246106	1.1921158	10	50	1	2	3	4	12	2	9	n/a	9068.587898	n/a
9069.446525	1.1921161	10	51	1	2	3	4	13	1	10	0	9069.788372	0.0032605
9070.647051	1.1921013	10	52	1	2	3	4	14	1	10	1	9070.988798	0.020125
9071.847477	1.2256508	10	53	1	2	3	4	15	1	10	n/a	9072.189363	n/a
9073.08139	1.2337971	10	54	1	2	3	4	16	1	10	n/a	9073.423245	n/a
9074.323562	1.2337797	10	55	1	2	3	4	17	1	10	n/a	9074.665359	n/a
9075.565751	1.2003813	10	56	1	2	3	4	18	1	11	0	9075.907485	0.778656
9076.78283	1.1920819	10	57	1	2	9	5	1	3	11	n/a	n/a	n/a
9077.983353	1.1921298	10	58	1	2	9	5	2	3	11	n/a	n/a	n/a
9079.183847	1.1921029	10	59	1	2	9	5	3	3	11	n/a	n/a	n/a
9080.38428	1.1921587	10	60	1	2	9	5	4	3	11	n/a	n/a	n/a
9081.584808	1.192177	10	61	1	2	9	5	5	3	11	n/a	n/a	n/a
9082.785202	1.1921858	10	62	1	2	9	5	6	3	11	n/a	n/a	n/a
9083.985797	1.1921459	10	63	1	2	9	5	7	3	11	n/a	n/a	n/a
9085.186238	1.1921228	10	64	1	2	9	5	8	3	11	n/a	n/a	n/a
9086.386755	1.1921522	10	65	1	2	9	5	9	3	11	n/a	n/a	n/a
9087.587254	1.1921646	10	66	1	2	9	5	10	3	11	n/a	n/a	n/a
9088.804527	1.2253428	10	67	1	2	5	6	1	2	11	n/a	9089.146216	n/a
9090.038241	1.225422	10	68	1	2	5	6	2	1	11	1	9090.380044	0.7950632
9091.272066	1.2254947	10	69	1	2	5	6	3	1	11	1	9091.613775	0.7199751
9092.505836	1.2339085	10	70	1	2	5	6	4	2	10	1	9092.847683	0.6949918
9093.748032	1.2171894	10	71	1	2	5	6	5	1	10	1	9094.089807	0.5699263
9094.973579	1.2004104	10	72	1	2	5	6	6	1	10	1	9095.315385	0.7449786
9096.1824	1.2255242	10	73	1	2	5	6	7	2	9	1	9096.524166	0.8117978
9097.416143	1.1921694	10	74	1	2	5	6	8	2	9	1	9097.758021	0.7035032
9098.616726	1.1921678	10	75	1	2	5	6	9	1	9	1	9098.958519	0.6201196
9099.817147	1.2005649	10	76	1	2	5	6	10	1	8	1	9100.159024	0.6700727
9101.02607	1.1920242	10	77	1	2	5	6	11	2	8	1	9101.367855	0.686663
9102.226452	1.2255951	10	78	1	2	5	6	12	2	8	1	9102.568243	0.8535802
9103.460328	1.2005714	10	79	1	2	5	6	13	1	7	1	9103.802161	0.7032762
9104.669214	1.2003482	10	80	1	2	5	6	14	1	7	1	9105.011012	0.6950396
9105.87801	1.2087205	10	81	1	2	5	6	15	2	7	1	9106.21982	0.7784011
9107.095149	1.2004251	10	82	1	2	5	6	16	2	8	0	9107.43699	0.8115777
9108.303995	1.2171388	10	83	1	2	5	6	17	2	8	1	9108.645686	0.8453696
9109.529502	1.2171291	10	84	1	2	5	6	18	1	8	1	9109.871325	0.7450094
9110.763371	1.1920764	10	85	1	2	9	7	1	3	8	n/a	n/a	n/a
9111.96377	1.1920583	10	86	1	2	9	7	2	3	8	n/a	n/a	n/a
9113.164313	1.1921509	10	87	1	2	9	7	3	3	8	n/a	n/a	n/a
9114.364776	1.1920964	10	88	1	2	9	7	4	3	8	n/a	n/a	n/a
9115.565379	1.1920634	10	89	1	2	9	7	5	3	8	n/a	n/a	n/a
9116.765756	1.1921388	10	90	1	2	9	7	6	3	8	n/a	n/a	n/a
9117.966146	1.1921926	10	91	1	2	9	7	7	3	8	n/a	n/a	n/a
9119.166771	1.1921318	10	92	1	2	9	7	8	3	8	n/a	n/a	n/a
9120.367208	1.1921062	10	93	1	2	9	7	9	3	8	n/a	n/a	n/a
9121.567703	1.1920662	10	94	1	2	9	7	10	3	8	n/a	n/a	n/a
9122.776458	1.2256835	10	95	1	2	7	8	1	1	7	1	9123.118297	0.7950256
9124.010334	1.1921305	10	96	1	2	7	8	2	2	7	1	9124.352196	0.7700547
9125.210843	1.2255385	10	97	1	2	7	8	3	1	7	1	9125.552612	0.7616853
9126.444601	1.1921651	10	98	1	2	7	8	4	2	6	1	9126.786489	0.72027
9127.645172	1.2088471	10	99	1	2	7	8	5	1	6	n/a	9127.986984	n/a
9128.862372	1.2003728	10	100	1	2	7	8	6	1	6	1	9129.204143	0.8618065
9130.071193	1.1921395	10	101	1	2	7	8	7	1	6	n/a	9130.41291	n/a
9131.271604	1.19215	10	102	1	2	7	8	8	2	6	n/a	9131.613484	n/a
9132.472069	1.2422176	10	103	1	2	7	8	9	1	6	n/a	9132.813896	n/a
9133.722659	1.225364	10	104	1	2	7	8	10	1	7	0	9134.064464	0.7201928
9134.956477	1.2087525	10	105	1	2	7	8	11	2	7	1	9135.298168	0.7200005
9136.173662	1.2254637	10	106	1	2	7	8	12	2	7	1	9136.515376	0.7032676
9137.407506	1.1921126	10	107	1	2	7	8	13	1	6	1	9137.749206	0.6284488
9138.607959	1.2338275	10	108	1	2	7	8	14	2	6	1	9138.949749	0.6365613
9139.85017	1.2255471	10	109	1	2	7	8	15	1	7	0	9140.191934	0.5782233
9141.083974	1.1921349	10	110	1	2	7	8	16	1	7	1	9141.425765	0.7283388
9142.284362	1.1921884	10	111	1	2	7	8	17	2	7	n/a	9142.626253	n/a
9143.484925	1.2087315	10	112	1	2	7	8	18	1	8	0	9143.826641	0.3282138
9144.710423	1.1921542	10	113	1	2	9	9	1	3	8	n/a	n/a	n/a
9145.910902	1.1921966	10	114	1	2	9	9	2	3	8	n/a	n/a	n/a
9147.11135	1.1922255	10	115	1	2	9	9	3	3	8	n/a	n/a	n/a
9148.311822	1.1922587	10	116	1	2	9	9	4	3	8	n/a	n/a	n/a
9149.512437	1.1921223	10	117	1	2	9	9	5	3	8	n/a	n/a	n/a
9150.712848	1.1920998	10	118	1	2	9	9	6	3	8	n/a	n/a	n/a
9151.913385	1.192169	10	119	1	2	9	9	7	3	8	n/a	n/a	n/a
9153.113879	1.1921359	10	120	1	2	9	9	8	3	8	n/a	n/a	n/a
9154.314326	1.192353	10	121	1	2	9	9	9	3	8	n/a	n/a	n/a
9155.514852	1.1921388	10	122	1	2	9	9	10	3	8	n/a	n/a	n/a
