onset	duration	run_number	trial_number	att_task	seq_acquisition	bar_direction	bar_period	bar_step	stim_noise_ori	stim_stair_val	response_val	probe_time	reaction_time
7234.90264	1.1919016	2	1	1	2	9	1	1	3	9	n/a	n/a	n/a
7236.102813	1.1921607	2	2	1	2	9	1	2	3	9	n/a	n/a	n/a
7237.303439	1.1920896	2	3	1	2	9	1	3	3	9	n/a	n/a	n/a
7238.50376	1.192222	2	4	1	2	9	1	4	3	9	n/a	n/a	n/a
7239.705298	1.1920012	2	5	1	2	9	1	5	3	9	n/a	n/a	n/a
7240.90471	1.1922261	2	6	1	2	9	1	6	3	9	n/a	n/a	n/a
7242.105164	1.1922689	2	7	1	2	9	1	7	3	9	n/a	n/a	n/a
7243.305723	1.1921243	2	8	1	2	9	1	8	3	9	n/a	n/a	n/a
7244.506176	1.1920383	2	9	1	2	9	1	9	3	9	n/a	n/a	n/a
7245.706625	1.1920862	2	10	1	2	9	1	10	3	9	n/a	n/a	n/a
7246.924663	1.233104	2	11	1	2	1	2	1	1	8	1	7247.274129	0.7037355
7248.166033	1.2421202	2	12	1	2	1	2	2	2	8	1	7248.516331	0.8955287
7249.416458	1.225462	2	13	1	2	1	2	3	1	8	n/a	7249.75846	n/a
7250.650381	1.2088054	2	14	1	2	1	2	4	1	9	0	7250.992336	0.0035779
7251.86751	1.2254538	2	15	1	2	1	2	5	1	9	1	7252.210309	0.0040116
7253.10139	1.2421199	2	16	1	2	1	2	6	1	9	1	7253.443435	0.003525499999
7254.35177	1.225571	2	17	1	2	1	2	7	1	9	n/a	7254.693607	n/a
7255.585784	1.2004389	2	18	1	2	1	2	8	2	9	1	7255.927479	0.828729
7256.794473	1.2338435	2	19	1	2	1	2	9	1	8	1	7257.136373	0.8284748
7258.03668	1.2253921	2	20	1	2	1	2	10	2	8	n/a	7258.378499	n/a
7259.270525	1.2171721	2	21	1	2	1	2	11	1	8	1	7259.612391	0.004840199999
7260.496	1.2255238	2	22	1	2	1	2	12	2	7	1	7260.837793	0.7620172
7261.729785	1.2254633	2	23	1	2	1	2	13	1	7	n/a	7262.071632	n/a
7262.963693	1.2420372	2	24	1	2	1	2	14	2	7	1	7263.305385	0.0048018
7264.214167	1.2338467	2	25	1	2	1	2	15	1	8	0	7264.555974	0.136525
7265.456316	1.2338802	2	26	1	2	1	2	16	1	8	1	7265.798169	0.7872587
7266.698432	1.2256028	2	27	1	2	1	2	17	1	8	n/a	7267.040322	n/a
7267.932369	1.2255271	2	28	1	2	1	2	18	2	8	n/a	7268.274178	n/a
7269.175012	1.1917771	2	29	1	2	9	3	1	3	8	n/a	n/a	n/a
7270.37523	1.1918875	2	30	1	2	9	3	2	3	8	n/a	n/a	n/a
7271.57552	1.1921102	2	31	1	2	9	3	3	3	8	n/a	n/a	n/a
7272.775935	1.1922035	2	32	1	2	9	3	4	3	8	n/a	n/a	n/a
7273.97649	1.1921092	2	33	1	2	9	3	5	3	8	n/a	n/a	n/a
7275.176871	1.1921498	2	34	1	2	9	3	6	3	8	n/a	n/a	n/a
7276.377455	1.1921242	2	35	1	2	9	3	7	3	8	n/a	n/a	n/a
7277.577868	1.1921286	2	36	1	2	9	3	8	3	8	n/a	n/a	n/a
7278.77861	1.191859	2	37	1	2	9	3	9	3	8	n/a	n/a	n/a
7279.978925	1.1921133	2	38	1	2	9	3	10	3	8	n/a	n/a	n/a
7281.187759	1.2254067	2	39	1	2	3	4	1	2	8	n/a	7281.529514	n/a
7282.421618	1.2420515	2	40	1	2	3	4	2	2	8	n/a	7282.771749	n/a
7283.672073	1.2253892	2	41	1	2	3	4	3	1	8	n/a	7284.013768	n/a
7284.905882	1.2337806	2	42	1	2	3	4	4	2	9	0	7285.24757	0.0202643
7286.148086	1.2254068	2	43	1	2	3	4	5	1	10	0	7286.489866	0.0033496
7287.381923	1.233728	2	44	1	2	3	4	6	2	11	0	7287.72358	0.0031846
7288.623982	1.2255774	2	45	1	2	3	4	7	2	11	n/a	7288.965842	n/a
7289.857835	1.2170931	2	46	1	2	3	4	8	1	11	n/a	7290.199632	n/a
7291.083418	1.2337827	2	47	1	2	3	4	9	1	11	n/a	7291.425171	n/a
7292.325591	1.2253827	2	48	1	2	3	4	10	1	11	n/a	7292.667344	n/a
7293.559359	1.2254196	2	49	1	2	3	4	11	2	11	n/a	7293.901204	n/a
7294.793222	1.24216	2	50	1	2	3	4	12	1	11	1	7295.134922	0.8035618
7296.043665	1.2254948	2	51	1	2	3	4	13	1	11	1	7296.38553	0.8201108
7297.277688	1.2420201	2	52	1	2	3	4	14	1	11	n/a	7297.619424	n/a
7298.528079	1.2338255	2	53	1	2	3	4	15	1	10	1	7298.869864	0.044839
7299.770144	1.2338603	2	54	1	2	3	4	16	1	10	1	7300.111971	0.2449448
7301.012357	1.2255825	2	55	1	2	3	4	17	1	10	n/a	7301.35411	n/a
7302.246166	1.2255487	2	56	1	2	3	4	18	1	10	1	7302.588117	0.0031419
7303.488342	1.1921344	2	57	1	2	9	5	1	3	10	n/a	n/a	n/a
7304.688907	1.1921389	2	58	1	2	9	5	2	3	10	n/a	n/a	n/a
7305.8894	1.1920643	2	59	1	2	9	5	3	3	10	n/a	n/a	n/a
7307.08985	1.1921825	2	60	1	2	9	5	4	3	10	n/a	n/a	n/a
7308.290354	1.1921501	2	61	1	2	9	5	5	3	10	n/a	n/a	n/a
7309.490793	1.1921135	2	62	1	2	9	5	6	3	10	n/a	n/a	n/a
7310.691352	1.1921937	2	63	1	2	9	5	7	3	10	n/a	n/a	n/a
7311.891765	1.1921263	2	64	1	2	9	5	8	3	10	n/a	n/a	n/a
7313.092328	1.1921266	2	65	1	2	9	5	9	3	10	n/a	n/a	n/a
7314.292781	1.1921149	2	66	1	2	9	5	10	3	10	n/a	n/a	n/a
7315.501614	1.2420405	2	67	1	2	5	6	1	2	10	n/a	7315.843445	n/a
7316.752048	1.2338894	2	68	1	2	5	6	2	2	10	1	7317.102385	0.8787533
7317.994305	1.2255831	2	69	1	2	5	6	3	2	9	n/a	7318.336086	n/a
7319.228222	1.1920789	2	70	1	2	5	6	4	1	9	1	7319.569973	0.0863815
7320.428729	1.2254609	2	71	1	2	5	6	5	2	9	1	7320.770501	0.7536768
7321.662525	1.2337553	2	72	1	2	5	6	6	1	9	n/a	7322.004344	n/a
7322.904528	1.1921542	2	73	1	2	5	6	7	1	9	n/a	7323.246383	n/a
7324.105128	1.2339177	2	74	1	2	5	6	8	1	10	0	7324.446911	0.2032079
7325.347371	1.2338365	2	75	1	2	5	6	9	1	10	1	7325.689162	0.6365153
7326.589552	1.2253814	2	76	1	2	5	6	10	1	10	n/a	7326.931335	n/a
7327.823366	1.2086956	2	77	1	2	5	6	11	1	10	n/a	7328.165052	n/a
7329.04036	1.2088946	2	78	1	2	5	6	12	2	11	0	7329.382248	0.3114385
7330.257624	1.2253563	2	79	1	2	5	6	13	2	11	n/a	7330.599364	n/a
7331.491452	1.2338014	2	80	1	2	5	6	14	1	11	n/a	7331.83313	n/a
7332.733595	1.2338543	2	81	1	2	5	6	15	1	11	1	7333.075424	0.0030911
7333.975807	1.2338006	2	82	1	2	5	6	16	2	12	0	7334.317584	0.6948979
7335.217949	1.225411	2	83	1	2	5	6	17	1	12	1	7335.559754	0.6697931
7336.451764	1.2254348	2	84	1	2	5	6	18	2	12	1	7336.79357	0.794908
7337.69398	1.1921218	2	85	1	2	9	7	1	3	12	n/a	n/a	n/a
7338.894389	1.1921416	2	86	1	2	9	7	2	3	12	n/a	n/a	n/a
7340.094944	1.1921333	2	87	1	2	9	7	3	3	12	n/a	n/a	n/a
7341.295372	1.1920734	2	88	1	2	9	7	4	3	12	n/a	n/a	n/a
7342.495906	1.1921146	2	89	1	2	9	7	5	3	12	n/a	n/a	n/a
7343.696399	1.1921171	2	90	1	2	9	7	6	3	12	n/a	n/a	n/a
7344.89679	1.1922046	2	91	1	2	9	7	7	3	12	n/a	n/a	n/a
7346.097285	1.1922175	2	92	1	2	9	7	8	3	12	n/a	n/a	n/a
7347.297733	1.1921713	2	93	1	2	9	7	9	3	12	n/a	n/a	n/a
7348.49834	1.192115	2	94	1	2	9	7	10	3	12	n/a	n/a	n/a
7349.707215	1.2254085	2	95	1	2	7	8	1	1	11	1	7350.048821	0.6368304
7350.940882	1.2338276	2	96	1	2	7	8	2	1	11	1	7351.291041	0.7448631
7352.183066	1.2255766	2	97	1	2	7	8	3	1	11	1	7352.52485	0.7868579
7353.416895	1.2422007	2	98	1	2	7	8	4	2	10	1	7353.758753	0.6200794
7354.667497	1.2254949	2	99	1	2	7	8	5	2	10	1	7355.00916	0.6534538
7355.901228	1.19211	2	100	1	2	7	8	6	1	10	1	7356.243104	0.6365599
7357.101812	1.2253711	2	101	1	2	7	8	7	2	9	1	7357.443581	0.6115658
7358.335669	1.2170482	2	102	1	2	7	8	8	2	9	1	7358.677325	0.7532355
7359.561114	1.2338488	2	103	1	2	7	8	9	1	9	1	7359.902953	0.7199699
7360.803312	1.2254208	2	104	1	2	7	8	10	2	9	1	7361.14513	0.8451316
7362.037158	1.2253727	2	105	1	2	7	8	11	2	8	1	7362.378914	0.7616313
7363.270966	1.2254948	2	106	1	2	7	8	12	2	8	1	7363.612689	0.7699159
7364.504702	1.2256365	2	107	1	2	7	8	13	1	7	1	7364.846485	0.8117287
7365.738569	1.2339346	2	108	1	2	7	8	14	2	7	1	7366.080428	0.8032848
7366.980752	1.2421038	2	109	1	2	7	8	15	2	7	n/a	7367.322631	n/a
7368.231335	1.2337918	2	110	1	2	7	8	16	1	8	0	7368.573078	0.8369485
7369.473493	1.2337812	2	111	1	2	7	8	17	1	8	1	7369.815291	0.7618821
7370.71568	1.20039	2	112	1	2	7	8	18	2	8	1	7371.057462	0.6782927
7371.932808	1.1921667	2	113	1	2	9	9	1	3	8	n/a	n/a	n/a
7373.133215	1.1922164	2	114	1	2	9	9	2	3	8	n/a	n/a	n/a
7374.333699	1.192242	2	115	1	2	9	9	3	3	8	n/a	n/a	n/a
7375.534224	1.1920918	2	116	1	2	9	9	4	3	8	n/a	n/a	n/a
7376.734756	1.1921766	2	117	1	2	9	9	5	3	8	n/a	n/a	n/a
7377.935241	1.1921569	2	118	1	2	9	9	6	3	8	n/a	n/a	n/a
7379.13568	1.1922059	2	119	1	2	9	9	7	3	8	n/a	n/a	n/a
7380.336255	1.1920995	2	120	1	2	9	9	8	3	8	n/a	n/a	n/a
7381.536614	1.1922066	2	121	1	2	9	9	9	3	8	n/a	n/a	n/a
7382.737201	1.1922024	2	122	1	2	9	9	10	3	8	n/a	n/a	n/a
