onset	duration	run_number	trial_number	att_task	seq_acquisition	bar_direction	bar_period	bar_step	stim_noise_ori	stim_stair_val	response_val	probe_time	reaction_time
8336.165855	1.1919937	7	1	1	1	9	1	1	3	12	n/a	n/a	n/a
8337.366243	1.1921829	7	2	1	1	9	1	2	3	12	n/a	n/a	n/a
8338.566699	1.1921293	7	3	1	1	9	1	3	3	12	n/a	n/a	n/a
8339.767223	1.1921758	7	4	1	1	9	1	4	3	12	n/a	n/a	n/a
8340.968422	1.1922189	7	5	1	1	9	1	5	3	12	n/a	n/a	n/a
8342.16825	1.1920359	7	6	1	1	9	1	6	3	12	n/a	n/a	n/a
8343.36868	1.1920636	7	7	1	1	9	1	7	3	12	n/a	n/a	n/a
8344.569038	1.1920619	7	8	1	1	9	1	8	3	12	n/a	n/a	n/a
8345.769552	1.1921578	7	9	1	1	9	1	9	3	12	n/a	n/a	n/a
8346.969996	1.1921136	7	10	1	1	9	1	10	3	12	n/a	n/a	n/a
8348.18797	1.2497512	7	11	1	1	1	2	1	2	13	0	8348.537389	0.2787435
8349.44606	1.2338023	7	12	1	1	1	2	2	1	14	0	8349.787995	0.1617038
8350.688141	1.2254369	7	13	1	1	1	2	3	2	14	1	8351.030173	0.6615441
8351.922034	1.233793	7	14	1	1	1	2	4	2	14	1	8352.263906	0.6117415
8353.164284	1.2253046	7	15	1	1	1	2	5	2	13	1	8353.507055	0.6025148
8354.398021	1.2338693	7	16	1	1	1	2	6	2	13	1	8354.74006	0.6380816
8355.640254	1.2253272	7	17	1	1	1	2	7	2	13	1	8355.98196	0.7452846
8356.874025	1.2170934	7	18	1	1	1	2	8	2	12	1	8357.215769	0.6956538
8358.099517	1.2338757	7	19	1	1	1	2	9	1	12	1	8358.44133	0.5702097
8359.341701	1.225534	7	20	1	1	1	2	10	2	12	1	8359.683523	0.620022
8360.575586	1.2253713	7	21	1	1	1	2	11	1	11	1	8360.917364	0.6703764
8361.809371	1.225482	7	22	1	1	1	2	12	2	11	1	8362.151113	0.7033798
8363.043169	1.2171236	7	23	1	1	1	2	13	1	11	1	8363.384937	0.7369326
8364.268718	1.2338185	7	24	1	1	1	2	14	2	10	1	8364.610517	0.6699519
8365.510912	1.2254328	7	25	1	1	1	2	15	2	10	1	8365.85271	0.6865177
8366.744709	1.233818	7	26	1	1	1	2	16	2	10	1	8367.086484	0.7116467
8367.986859	1.2254626	7	27	1	1	1	2	17	2	9	1	8368.328703	0.7198851
8369.22071	1.2420911	7	28	1	1	1	2	18	2	9	1	8369.562449	0.7366298
8370.480002	1.1917878	7	29	1	1	9	3	1	3	9	n/a	n/a	n/a
8371.680301	1.1919035	7	30	1	1	9	3	2	3	9	n/a	n/a	n/a
8372.880474	1.1920958	7	31	1	1	9	3	3	3	9	n/a	n/a	n/a
8374.081042	1.1920648	7	32	1	1	9	3	4	3	9	n/a	n/a	n/a
8375.281518	1.1920023	7	33	1	1	9	3	5	3	9	n/a	n/a	n/a
8376.482107	1.1920756	7	34	1	1	9	3	6	3	9	n/a	n/a	n/a
8377.682508	1.192075	7	35	1	1	9	3	7	3	9	n/a	n/a	n/a
8378.882927	1.1921548	7	36	1	1	9	3	8	3	9	n/a	n/a	n/a
8380.083487	1.1921201	7	37	1	1	9	3	9	3	9	n/a	n/a	n/a
8381.283869	1.1921414	7	38	1	1	9	3	10	3	9	n/a	n/a	n/a
8382.492725	1.2255076	7	39	1	1	3	4	1	2	9	1	8382.834604	0.6450458
8383.726555	1.2338765	7	40	1	1	3	4	2	1	8	1	8384.068425	0.6630769
8384.968771	1.2253947	7	41	1	1	3	4	3	1	8	1	8385.310557	0.686904
8386.202611	1.2337635	7	42	1	1	3	4	4	1	8	1	8386.544385	0.6368251
8387.44473	1.1922153	7	43	1	1	3	4	5	2	7	1	8387.786531	0.6366643
8388.645269	1.2254907	7	44	1	1	3	4	6	1	7	1	8388.987074	0.7534412
8389.879081	1.2254137	7	45	1	1	3	4	7	1	7	n/a	8390.220914	n/a
8391.112977	1.2171424	7	46	1	1	3	4	8	1	7	n/a	8391.454661	n/a
8392.338392	1.2338889	7	47	1	1	3	4	9	1	7	1	8392.680234	0.8033126
8393.58055	1.2255867	7	48	1	1	3	4	10	1	7	n/a	8393.922419	n/a
8394.814473	1.2013009	7	49	1	1	3	4	11	2	6	1	8395.156244	0.003174400001
8396.023255	1.2254273	7	50	1	1	3	4	12	1	7	0	8396.365092	0.003513399999
8397.257104	1.217152	7	51	1	1	3	4	13	2	8	0	8397.615584	0.0034024
8398.482599	1.2338324	7	52	1	1	3	4	14	2	8	1	8398.824421	0.0363698
8399.724682	1.2005359	7	53	1	1	3	4	15	1	8	1	8400.066573	0.8115403
8400.933613	1.2339077	7	54	1	1	3	4	16	1	8	n/a	8401.275408	n/a
8402.175727	1.2254577	7	55	1	1	3	4	17	2	9	0	8402.517575	0.0032512
8403.409621	1.2337708	7	56	1	1	3	4	18	2	9	1	8403.751444	0.686617
8404.660068	1.192087	7	57	1	1	9	5	1	3	9	n/a	n/a	n/a
8405.860596	1.192131	7	58	1	1	9	5	2	3	9	n/a	n/a	n/a
8407.061015	1.1921904	7	59	1	1	9	5	3	3	9	n/a	n/a	n/a
8408.261543	1.1921399	7	60	1	1	9	5	4	3	9	n/a	n/a	n/a
8409.462073	1.1921129	7	61	1	1	9	5	5	3	9	n/a	n/a	n/a
8410.662449	1.192182	7	62	1	1	9	5	6	3	9	n/a	n/a	n/a
8411.863053	1.1921252	7	63	1	1	9	5	7	3	9	n/a	n/a	n/a
8413.063526	1.1920913	7	64	1	1	9	5	8	3	9	n/a	n/a	n/a
8414.264026	1.1921077	7	65	1	1	9	5	9	3	9	n/a	n/a	n/a
8415.464509	1.1920857	7	66	1	1	9	5	10	3	9	n/a	n/a	n/a
8416.67323	1.1922358	7	67	1	1	5	6	1	2	9	1	8417.015115	0.7283084
8417.873747	1.1921448	7	68	1	1	5	6	2	1	9	n/a	8418.215562	n/a
8419.074302	1.2254953	7	69	1	1	5	6	3	1	9	n/a	8419.41599	n/a
8420.308066	1.2338913	7	70	1	1	5	6	4	1	9	n/a	8420.649919	n/a
8421.550251	1.2171825	7	71	1	1	5	6	5	2	9	1	8421.892036	0.8531859
8422.775772	1.2254261	7	72	1	1	5	6	6	2	8	n/a	8423.117565	n/a
8424.009603	1.1921832	7	73	1	1	5	6	7	2	8	n/a	8424.351338	n/a
8425.210138	1.192081	7	74	1	1	5	6	8	2	8	1	8425.55187	0.003246
8426.41079	1.2085667	7	75	1	1	5	6	9	2	8	1	8426.752296	0.6033518
8427.62776	1.2254601	7	76	1	1	5	6	10	1	7	1	8427.969483	0.5281677
8428.861538	1.2256199	7	77	1	1	5	6	11	2	7	1	8429.203265	0.7869897
8430.095398	1.1921402	7	78	1	1	5	6	12	2	7	n/a	8430.437233	n/a
8431.295919	1.2172113	7	79	1	1	5	6	13	1	7	1	8431.637659	0.3282134
8432.52154	1.1920234	7	80	1	1	5	6	14	2	7	1	8432.863226	0.8282643
8433.721805	1.2088199	7	81	1	1	5	6	15	2	6	0	8434.063678	0.8616957
8434.938936	1.2338717	7	82	1	1	5	6	16	1	7	n/a	8435.280782	n/a
8436.181223	1.225523	7	83	1	1	5	6	17	1	7	1	8436.522947	0.2365189
8437.414996	1.2172217	7	84	1	1	5	6	18	2	8	0	8437.756836	0.3868519
8438.648866	1.19212	7	85	1	1	9	7	1	3	8	n/a	n/a	n/a
8439.849362	1.1921832	7	86	1	1	9	7	2	3	8	n/a	n/a	n/a
8441.049902	1.1921096	7	87	1	1	9	7	3	3	8	n/a	n/a	n/a
8442.250322	1.1921481	7	88	1	1	9	7	4	3	8	n/a	n/a	n/a
8443.45087	1.192127	7	89	1	1	9	7	5	3	8	n/a	n/a	n/a
8444.651282	1.1921215	7	90	1	1	9	7	6	3	8	n/a	n/a	n/a
8445.851836	1.1921283	7	91	1	1	9	7	7	3	8	n/a	n/a	n/a
8447.052276	1.1921691	7	92	1	1	9	7	8	3	8	n/a	n/a	n/a
8448.252859	1.1920077	7	93	1	1	9	7	9	3	8	n/a	n/a	n/a
8449.453317	1.1921204	7	94	1	1	9	7	10	3	8	n/a	n/a	n/a
8450.662148	1.2254404	7	95	1	1	7	8	1	2	8	n/a	8451.003778	n/a
8451.896144	1.2335386	7	96	1	1	7	8	2	1	8	n/a	8452.237681	n/a
8453.137999	1.1922427	7	97	1	1	7	8	3	1	8	1	8453.479848	0.011421
8454.338616	1.2420998	7	98	1	1	7	8	4	2	8	1	8454.680429	0.803245
8455.589004	1.1922944	7	99	1	1	7	8	5	2	7	1	8455.930851	0.7033755
8456.789607	1.2254155	7	100	1	1	7	8	6	1	7	n/a	8457.131389	n/a
8458.02346	1.2254698	7	101	1	1	7	8	7	2	7	1	8458.365093	0.6701605
8459.257187	1.2255701	7	102	1	1	7	8	8	1	7	n/a	8459.599076	n/a
8460.491099	1.2338351	7	103	1	1	7	8	9	2	7	n/a	8460.83287	n/a
8461.733185	1.1920939	7	104	1	1	7	8	10	1	7	1	8462.075077	0.0111472
8462.933668	1.2255269	7	105	1	1	7	8	11	2	6	1	8463.275471	0.4784252
8464.167561	1.2255185	7	106	1	1	7	8	12	2	6	1	8464.50933	0.6448784
8465.401366	1.2005572	7	107	1	1	7	8	13	1	7	0	8465.743134	0.5951604
8466.610267	1.1920817	7	108	1	1	7	8	14	2	8	0	8466.952109	0.5113614
8467.810612	1.1922433	7	109	1	1	7	8	15	1	9	0	8468.152455	0.4699805
8469.011266	1.2253497	7	110	1	1	7	8	16	1	10	0	8469.35298	0.5537927
8470.245098	1.2003938	7	111	1	1	7	8	17	2	10	1	8470.58678	0.5200392
8471.453817	1.1921833	7	112	1	1	7	8	18	2	10	1	8471.795656	0.4116059
8472.662659	1.1921142	7	113	1	1	9	9	1	3	10	n/a	n/a	n/a
8473.863174	1.192199	7	114	1	1	9	9	2	3	10	n/a	n/a	n/a
8475.063578	1.1922638	7	115	1	1	9	9	3	3	10	n/a	n/a	n/a
8476.264203	1.1920392	7	116	1	1	9	9	4	3	10	n/a	n/a	n/a
8477.464599	1.1922119	7	117	1	1	9	9	5	3	10	n/a	n/a	n/a
8478.665083	1.1920967	7	118	1	1	9	9	6	3	10	n/a	n/a	n/a
8479.865637	1.1920907	7	119	1	1	9	9	7	3	10	n/a	n/a	n/a
8481.066041	1.1922137	7	120	1	1	9	9	8	3	10	n/a	n/a	n/a
8482.266612	1.1921885	7	121	1	1	9	9	9	3	10	n/a	n/a	n/a
8483.467118	1.1921291	7	122	1	1	9	9	10	3	10	n/a	n/a	n/a
