onset	duration	run_number	trial_number	att_task	fix_direction	bar_direction	bar_period	bar_step	fix_noise_ori	stim_noise_ori	fix_stair_val	stim_stair_val	response_val	probe_time	reaction_time
1560162327	1.291373014	3	1	1	4	9	1	1	3	3	3	15	n/a	n/a	n/a
1560162329	1.291763067	3	2	1	4	9	1	2	3	3	3	15	n/a	n/a	n/a
1560162330	1.291802168	3	3	1	4	9	1	3	3	3	3	15	n/a	n/a	n/a
1560162331	1.29171586	3	4	1	4	9	1	4	3	3	3	15	n/a	n/a	n/a
1560162333	1.291723967	3	5	1	4	9	1	5	3	3	3	15	n/a	n/a	n/a
1560162334	1.291706085	3	6	1	4	9	1	6	3	3	3	15	n/a	n/a	n/a
1560162335	1.291738987	3	7	1	4	9	1	7	3	3	3	15	n/a	n/a	n/a
1560162337	1.29171896	3	8	1	4	9	1	8	3	3	3	15	n/a	n/a	n/a
1560162338	1.291703939	3	9	1	4	9	1	9	3	3	3	15	n/a	n/a	n/a
1560162339	1.29173398	3	10	1	4	9	1	10	3	3	3	15	n/a	n/a	n/a
1560162340	1.307257175	3	11	1	4	1	2	1	1	2	3	15	n/a	1560162341	n/a
1560162342	1.30000186	3	12	1	4	1	2	2	2	1	3	15	1	1560162342	0.7085499763
1560162343	1.299979925	3	13	1	4	1	2	3	2	1	3	15	1	1560162343	0.8500781059
1560162344	1.299988985	3	14	1	4	1	2	4	2	1	2	15	1	1560162345	0.6334619522
1560162346	1.291766882	3	15	1	4	1	2	5	1	1	2	15	1	1560162346	0.9080719948
1560162347	1.300090075	3	16	1	4	1	2	6	1	2	3	15	0	1560162347	0.7168660164
1560162348	1.300086021	3	17	1	4	1	2	7	2	2	3	15	n/a	1560162349	n/a
1560162350	1.299972057	3	18	1	4	1	2	8	1	2	3	15	1	1560162350	0.6003100872
1560162351	1.300043106	3	19	1	4	1	2	9	2	1	3	15	1	1560162351	0.4844009876
1560162352	1.300006866	3	20	1	4	1	2	10	1	1	4	15	0	1560162353	0.5752720833
1560162354	1.299986839	3	21	1	4	1	2	11	1	2	5	15	0	1560162354	0.7334809303
1560162355	1.299992085	3	22	1	4	1	2	12	1	1	5	15	1	1560162355	0.675180912
1560162356	1.300062895	3	23	1	4	1	2	13	1	1	5	15	1	1560162356	0.8835330009
1560162357	1.299975872	3	24	1	4	1	2	14	1	1	4	15	1	1560162358	0.7260868549
1560162359	1.300036192	3	25	1	4	1	2	15	1	2	5	15	0	1560162359	0.7584750652
1560162360	1.299987078	3	26	1	4	1	2	16	1	1	5	15	n/a	1560162360	n/a
1560162361	1.300090075	3	27	1	4	1	2	17	1	2	5	15	n/a	1560162362	n/a
1560162363	1.300040007	3	28	1	4	1	2	18	2	1	5	15	n/a	1560162363	n/a
1560162364	1.29164505	3	29	1	4	1	2	19	1	1	5	15	1	1560162364	0.8253998756
1560162365	1.299983978	3	30	1	4	1	2	20	1	1	5	15	1	1560162366	0.6418418884
1560162367	1.299918175	3	31	1	4	1	2	21	2	2	4	15	1	1560162367	0.8669848442
1560162368	1.299962044	3	32	1	4	1	2	22	1	1	4	15	1	1560162368	0.6083729267
1560162369	1.308305979	3	33	1	4	1	2	23	2	1	4	15	1	1560162370	0.6168079376
1560162371	1.299965858	3	34	1	4	1	2	24	2	2	5	15	0	1560162371	0.5419318676
1560162372	1.291650057	3	35	1	4	1	2	25	2	1	5	15	1	1560162372	0.5500421524
1560162373	1.29169488	3	36	1	4	1	2	26	1	2	5	15	n/a	1560162373	n/a
1560162374	1.300056934	3	37	1	4	1	2	27	1	2	5	15	1	1560162375	0.9334330559
1560162376	1.300125122	3	38	1	4	1	2	28	1	1	6	15	0	1560162376	0.7086119652
1560162377	1.308274031	3	39	1	4	1	2	29	2	1	6	15	1	1560162377	0.6250851154
1560162378	1.30004406	3	40	1	4	1	2	30	1	1	6	15	1	1560162379	0.6000699997
1560162380	1.300026894	3	41	1	4	1	2	31	1	1	5	15	1	1560162380	0.6334929466
1560162381	1.300051928	3	42	1	4	1	2	32	1	2	5	15	n/a	1560162381	n/a
1560162382	1.291298151	3	43	1	4	9	3	1	3	3	5	15	n/a	n/a	n/a
1560162384	1.291640997	3	44	1	4	9	3	2	3	3	5	15	n/a	n/a	n/a
1560162385	1.29166007	3	45	1	4	9	3	3	3	3	5	15	n/a	n/a	n/a
1560162386	1.291689157	3	46	1	4	9	3	4	3	3	5	15	n/a	n/a	n/a
1560162387	1.291759014	3	47	1	4	9	3	5	3	3	5	15	n/a	n/a	n/a
1560162389	1.291638851	3	48	1	4	9	3	6	3	3	5	15	n/a	n/a	n/a
1560162390	1.291690826	3	49	1	4	9	3	7	3	3	5	15	n/a	n/a	n/a
1560162391	1.291652203	3	50	1	4	9	3	8	3	3	5	15	n/a	n/a	n/a
1560162393	1.291659117	3	51	1	4	9	3	9	3	3	5	15	n/a	n/a	n/a
1560162394	1.291771889	3	52	1	4	9	3	10	3	3	5	15	n/a	n/a	n/a
1560162395	1.300252914	3	53	1	4	3	4	1	2	2	5	15	n/a	1560162396	n/a
1560162397	1.299940109	3	54	1	4	3	4	2	2	2	5	15	1	1560162397	0.5337750912
1560162398	1.300019979	3	55	1	4	3	4	3	2	2	5	15	1	1560162398	0.8000810146
1560162399	1.291774988	3	56	1	4	3	4	4	1	1	4	15	1	1560162400	0.5501320362
1560162401	1.300022125	3	57	1	4	3	4	5	2	2	5	15	0	1560162401	0.725083828
1560162402	1.299988985	3	58	1	4	3	4	6	2	2	5	15	1	1560162402	0.6667981148
1560162403	1.300027132	3	59	1	4	3	4	7	2	1	5	15	1	1560162403	0.6085021496
1560162404	1.299989939	3	60	1	4	3	4	8	2	2	4	15	1	1560162405	0.5084500313
1560162406	1.300086021	3	61	1	4	3	4	9	1	2	5	15	0	1560162406	0.516741991
1560162407	1.299980164	3	62	1	4	3	4	10	1	1	5	15	1	1560162407	0.7251091003
1560162408	1.300023079	3	63	1	4	3	4	11	1	1	5	15	1	1560162409	0.675055027
1560162410	1.30000186	3	64	1	4	3	4	12	1	2	4	15	1	1560162410	0.7334530354
1560162411	1.300114155	3	65	1	4	3	4	13	2	2	4	15	1	1560162411	0.6000640392
1560162412	1.299917936	3	66	1	4	3	4	14	2	1	5	15	0	1560162413	0.5749909878
1560162414	1.30005002	3	67	1	4	3	4	15	2	1	5	15	1	1560162414	0.5750570297
1560162415	1.300022125	3	68	1	4	3	4	16	1	2	5	15	1	1560162415	0.591782093
1560162416	1.299964905	3	69	1	4	3	4	17	2	2	6	15	0	1560162417	0.7000949383
1560162418	1.299945831	3	70	1	4	3	4	18	2	2	6	15	1	1560162418	0.9085168839
1560162419	1.291691065	3	71	1	4	9	5	1	3	3	6	15	n/a	n/a	n/a
1560162420	1.291785955	3	72	1	4	9	5	2	3	3	6	15	n/a	n/a	n/a
1560162421	1.29162693	3	73	1	4	9	5	3	3	3	6	15	n/a	n/a	n/a
1560162423	1.29157114	3	74	1	4	9	5	4	3	3	6	15	n/a	n/a	n/a
1560162424	1.291646957	3	75	1	4	9	5	5	3	3	6	15	n/a	n/a	n/a
1560162425	1.29163599	3	76	1	4	9	5	6	3	3	6	15	n/a	n/a	n/a
1560162427	1.291687012	3	77	1	4	9	5	7	3	3	6	15	n/a	n/a	n/a
1560162428	1.291676998	3	78	1	4	9	5	8	3	3	6	15	n/a	n/a	n/a
1560162429	1.291685104	3	79	1	4	9	5	9	3	3	6	15	n/a	n/a	n/a
1560162431	1.291629791	3	80	1	4	9	5	10	3	3	6	15	n/a	n/a	n/a
1560162432	1.300073862	3	81	1	4	5	6	1	2	1	6	15	1	1560162432	0.7085380554
1560162433	1.300030947	3	82	1	4	5	6	2	2	2	5	15	1	1560162434	0.600082159
1560162434	1.291586876	3	83	1	4	5	6	3	1	2	5	15	1	1560162435	0.6749899387
1560162436	1.291751146	3	84	1	4	5	6	4	2	2	5	15	1	1560162436	0.5667130947
1560162437	1.291658163	3	85	1	4	5	6	5	1	1	4	15	1	1560162437	0.5417711735
1560162438	1.299931049	3	86	1	4	5	6	6	2	1	4	15	1	1560162439	0.6167340279
1560162440	1.300086975	3	87	1	4	5	6	7	1	1	4	15	1	1560162440	0.7167711258
1560162441	1.299932957	3	88	1	4	5	6	8	1	2	5	15	0	1560162441	0.5333549976
1560162442	1.300002098	3	89	1	4	5	6	9	1	2	5	15	1	1560162443	0.541779995
1560162444	1.300000906	3	90	1	4	5	6	10	2	2	5	15	1	1560162444	0.5833489895
1560162445	1.300045013	3	91	1	4	5	6	11	2	1	4	15	1	1560162445	0.6418249607
1560162446	1.299931049	3	92	1	4	5	6	12	2	2	4	15	1	1560162447	0.6834058762
1560162448	1.300124168	3	93	1	4	5	6	13	2	1	5	15	0	1560162448	0.8503441811
1560162449	1.299978971	3	94	1	4	5	6	14	1	2	5	15	1	1560162449	0.5917229652
1560162450	1.291657925	3	95	1	4	5	6	15	1	1	6	15	0	1560162450	0.5250198841
1560162451	1.299998045	3	96	1	4	5	6	16	2	1	6	15	1	1560162452	0.6002001762
1560162453	1.299973011	3	97	1	4	5	6	17	2	1	6	15	1	1560162453	0.6833531857
1560162454	1.300082922	3	98	1	4	5	6	18	2	1	5	15	1	1560162454	0.6250751019
1560162455	1.299957991	3	99	1	4	5	6	19	2	1	5	15	n/a	1560162456	n/a
1560162457	1.300063848	3	100	1	4	5	6	20	1	2	5	15	1	1560162457	0.7833600044
1560162458	1.300045967	3	101	1	4	5	6	21	2	1	5	15	1	1560162458	0.5084471703
1560162459	1.291755915	3	102	1	4	5	6	22	2	1	4	15	1	1560162460	0.5750129223
1560162461	1.300029039	3	103	1	4	5	6	23	1	1	4	15	n/a	1560162461	n/a
1560162462	1.308395147	3	104	1	4	5	6	24	1	1	5	15	0	1560162462	0.8251109123
1560162463	1.300022125	3	105	1	4	5	6	25	1	2	5	15	n/a	1560162464	n/a
1560162465	1.300051928	3	106	1	4	5	6	26	2	1	5	15	1	1560162465	0.5917060375
1560162466	1.300065994	3	107	1	4	5	6	27	1	2	5	15	1	1560162466	0.8167340755
1560162467	1.291664124	3	108	1	4	5	6	28	1	2	4	15	1	1560162467	0.783479929
1560162468	1.299984932	3	109	1	4	5	6	29	1	1	5	15	0	1560162469	0.6251661777
1560162470	1.299962997	3	110	1	4	5	6	30	1	1	5	15	1	1560162470	0.7335460186
1560162471	1.291774035	3	111	1	4	5	6	31	2	2	5	15	1	1560162471	0.783452034
1560162472	1.299938917	3	112	1	4	5	6	32	1	1	4	15	1	1560162473	0.6250200272
1560162474	1.291756153	3	113	1	4	9	7	1	3	3	4	15	n/a	n/a	n/a
1560162475	1.291666985	3	114	1	4	9	7	2	3	3	4	15	n/a	n/a	n/a
1560162476	1.291642904	3	115	1	4	9	7	3	3	3	4	15	n/a	n/a	n/a
1560162478	1.29176712	3	116	1	4	9	7	4	3	3	4	15	n/a	n/a	n/a
1560162479	1.291661978	3	117	1	4	9	7	5	3	3	4	15	n/a	n/a	n/a
1560162480	1.291704178	3	118	1	4	9	7	6	3	3	4	15	n/a	n/a	n/a
1560162481	1.291695118	3	119	1	4	9	7	7	3	3	4	15	n/a	n/a	n/a
1560162483	1.291639805	3	120	1	4	9	7	8	3	3	4	15	n/a	n/a	n/a
1560162484	1.291771173	3	121	1	4	9	7	9	3	3	4	15	n/a	n/a	n/a
1560162485	1.291644096	3	122	1	4	9	7	10	3	3	4	15	n/a	n/a	n/a
1560162487	1.300071001	3	123	1	4	7	8	1	1	1	4	15	n/a	1560162487	n/a
1560162488	1.299947977	3	124	1	4	7	8	2	1	2	5	15	0	1560162488	0.7837212086
1560162489	1.300127029	3	125	1	4	7	8	3	2	1	5	15	1	1560162490	0.6668381691
1560162491	1.299980164	3	126	1	4	7	8	4	2	1	5	15	1	1560162491	0.6167562008
1560162492	1.299997091	3	127	1	4	7	8	5	1	2	4	15	1	1560162492	0.6167349815
1560162493	1.299991846	3	128	1	4	7	8	6	1	1	4	15	1	1560162494	0.6416909695
1560162495	1.300054073	3	129	1	4	7	8	7	2	1	4	15	1	1560162495	0.6749839783
1560162496	1.300091982	3	130	1	4	7	8	8	1	2	3	15	1	1560162496	0.6667170525
1560162497	1.291662931	3	131	1	4	7	8	9	2	1	3	15	1	1560162497	0.7501289845
1560162498	1.299998999	3	132	1	4	7	8	10	1	1	3	15	n/a	1560162499	n/a
1560162500	1.299947977	3	133	1	4	7	8	11	1	1	4	15	0	1560162500	0.5501160622
1560162501	1.300029039	3	134	1	4	7	8	12	2	2	5	15	0	1560162501	0.6084251404
1560162502	1.30002284	3	135	1	4	7	8	13	2	1	5	15	1	1560162503	0.7584719658
1560162504	1.300053835	3	136	1	4	7	8	14	2	1	5	15	1	1560162504	0.6500279903
1560162505	1.300024986	3	137	1	4	7	8	15	2	2	4	15	1	1560162505	0.6166808605
1560162506	1.299969912	3	138	1	4	7	8	16	2	2	4	15	1	1560162507	0.8251459599
1560162508	1.300061941	3	139	1	4	7	8	17	1	2	4	15	1	1560162508	0.9083509445
1560162509	1.299999952	3	140	1	4	7	8	18	2	1	4	15	n/a	1560162509	n/a
1560162510	1.291759014	3	141	1	4	9	9	1	3	3	4	15	n/a	n/a	n/a
1560162512	1.291738987	3	142	1	4	9	9	2	3	3	4	15	n/a	n/a	n/a
1560162513	1.291607141	3	143	1	4	9	9	3	3	3	4	15	n/a	n/a	n/a
1560162514	1.291730881	3	144	1	4	9	9	4	3	3	4	15	n/a	n/a	n/a
1560162515	1.291666985	3	145	1	4	9	9	5	3	3	4	15	n/a	n/a	n/a
1560162517	1.291693926	3	146	1	4	9	9	6	3	3	4	15	n/a	n/a	n/a
1560162518	1.291722775	3	147	1	4	9	9	7	3	3	4	15	n/a	n/a	n/a
1560162519	1.29161191	3	148	1	4	9	9	8	3	3	4	15	n/a	n/a	n/a
1560162521	1.291723967	3	149	1	4	9	9	9	3	3	4	15	n/a	n/a	n/a
1560162522	1.29166007	3	150	1	4	9	9	10	3	3	4	15	n/a	n/a	n/a
